-178,19,277_-96,-3ùOffsets:257,262,259,-54,-9,-59
P:roll,pitch,yaw;gyrox,gyroy,gyroz;accelx,accely,accelz;magx,magy,magz
3.070_1L:-0.00,0.02,-0.02_6,-2,-2_1,-4,250_0,0,0
3.091_1L:-0.09,0.01,-0.04_6,-2,-2_3,-2,249_0,0,0
3.126_1L:-0.15,-0.04,-0.05_6,-2,-1_3,-1,248_0,0,0
3.127_1L:-0.18,-0.09,-0.07_6,-2,-1_1,-3,248_0,0,0
3.195_1L:-0.25,-0.08,-0.09_6,-2,-1_1,-3,248_0,0,0
3.197_1L:-0.31,-0.08,-0.11_6,-2,-1_0,-1,248_-82,-416,878
3.202_1L:-0.32,-0.05,1.22_6,-2,-1_1,-2,248_-82,-416,878
3.218_1L:-0.36,-0.05,2.64_6,-3,-1_2,-2,248_-82,-416,878
3.264_1L:-0.37,-0.07,3.98_6,-2,-2_1,-3,249_-82,-416,878
3.266_1L:-0.40,-0.07,5.40_6,-2,-2_3,-2,250_-82,-416,878
3.282_1L:-0.43,-0.11,6.74_6,-2,-1_4,0,250_-82,-416,878
3.324_1L:-0.40,-0.18,8.16_6,-2,-1_4,-1,249_-81,-414,878
3.326_1L:-0.41,-0.23,9.52_6,-2,-1_2,-3,249_-81,-414,878
3.331_1L:-0.44,-0.22,10.94_7,-2,-2_2,-4,250_-81,-414,878
3.384_1L:-0.48,-0.20,12.30_7,-2,-2_2,-2,248_-81,-414,878
3.386_1L:-0.48,-0.21,13.74_6,-3,-2_3,0,247_-81,-414,878
3.395_1L:-0.47,-0.24,15.11_6,-3,0_0,-2,248_-81,-414,878
3.441_1L:-0.49,-0.20,16.47_6,-2,-1_1,-7,250_-86,-415,884
3.443_1L:-0.60,-0.18,17.91_6,-3,-2_2,-5,250_-86,-415,884
3.459_1L:-0.64,-0.19,19.28_6,-3,-3_3,-1,247_-86,-415,884
3.500_1L:-0.60,-0.24,20.71_5,-3,-2_2,2,247_-86,-415,884
3.506_1L:-0.51,-0.25,22.05_6,-2,-1_2,0,249_-86,-415,884
3.523_1L:-0.48,-0.23,23.46_7,-2,-1_3,-4,249_-86,-415,884
3.560_1L:-0.52,-0.26,24.81_6,-3,-2_3,-6,249_-84,-414,879
3.570_1L:-0.61,-0.28,26.22_6,-3,-2_3,-3,249_-84,-414,879
3.587_1L:-0.62,-0.31,27.55_6,-3,-2_3,0,248_-84,-414,879
3.618_1L:-0.58,-0.33,28.92_6,-2,-1_3,-1,248_-84,-414,879
3.619_1L:-0.56,-0.35,30.22_6,-2,-1_3,-4,249_-84,-414,879
3.676_1L:-0.62,-0.36,31.59_6,-3,-1_1,-3,249_-84,-414,879
3.678_1L:-0.63,-0.33,32.87_6,-2,-2_1,-2,248_-73,-408,871
3.683_1L:-0.63,-0.32,34.21_5,-3,-1_0,-1,246_-73,-408,871
3.699_1L:-0.65,-0.31,35.50_4,-4,1_-7,7,246_-73,-408,871
3.737_1L:-0.62,-0.23,36.87_-1,-6,9_-14,30,239_-73,-408,871
3.747_1L:-0.32,-0.13,38.18_-7,-7,20_-67,-8,248_-73,-408,871
3.763_1L:-0.63,1.04,39.51_-13,-5,8_-107,-82,303_-73,-408,871
3.795_1L:-0.61,1.33,40.64_-20,1,-35_-149,-133,347_-68,-427,863
3.811_1L:-0.98,0.27,41.49_-50,16,16_-215,-39,408_-68,-427,863
3.852_1L:-2.98,-1.24,42.00_-78,34,106_-202,-39,475_-68,-427,863
3.854_1L:-5.52,-3.55,42.37_-113,48,130_-140,-137,471_-68,-427,863
3.875_1L:-7.47,-6.43,42.86_-148,49,105_179,-118,362_-68,-427,863
3.908_1L:-9.15,-9.31,43.23_-138,59,89_440,-21,313_-68,-427,863
3.910_1L:-10.90,-11.73,43.04_-113,88,105_521,15,265_313,-446,600
3.966_1L:-13.29,-14.72,41.89_-117,98,130_565,96,269_313,-446,600
3.968_1L:-15.68,-17.14,40.54_-98,118,156_565,138,267_313,-446,600
3.972_1L:-16.77,-20.21,39.89_-140,97,77_565,103,180_313,-446,600
4.023_1L:-16.39,-24.56,40.73_-216,45,-32_565,220,-77_313,-446,600
4.025_1L:-16.04,-27.87,42.97_-192,-37,-69_565,316,-310_313,-446,600
4.035_1L:-16.33,-28.06,46.16_-41,-124,-56_565,458,-413_620,-431,284
4.083_1L:-16.20,-24.86,49.89_109,-212,-88_-331,414,-78_620,-431,284
4.086_1L:-14.43,-23.34,53.37_38,-192,-168_-458,520,302_620,-431,284
4.112_1L:-13.06,-19.39,56.74_172,-235,-142_-458,442,570_620,-431,284
4.154_1L:-13.05,-11.65,59.75_359,-260,-40_-458,-285,570_620,-431,284
4.157_1L:-11.85,-8.06,61.55_171,-161,-85_-458,-503,570_620,-431,284
4.174_1L:-10.07,-12.70,59.16_-215,139,-71_-458,-357,326_125,-505,514
4.189_1L:-9.20,-16.57,57.31_-150,136,-11_-11,92,-40_125,-505,514
4.224_1L:-9.37,-17.07,57.10_-14,42,19_64,346,-134_125,-505,514
4.226_1L:-10.00,-16.82,57.37_21,12,38_-53,136,37_125,-505,514
4.291_1L:-10.26,-16.78,57.27_-3,24,58_-126,67,211_125,-505,514
4.294_1L:-9.02,-13.59,56.29_-22,52,70_-252,-96,313_125,-505,514
4.296_1L:-9.98,-14.27,55.55_-18,72,65_-274,-49,311_339,-515,449
4.317_1L:-11.32,-14.49,54.28_8,70,83_-354,-44,283_339,-515,449
4.362_1L:-12.62,-14.89,52.72_4,90,90_-447,-126,235_339,-515,449
4.364_1L:-13.51,-16.29,50.83_-43,124,79_-366,-81,199_339,-515,449
4.380_1L:-14.38,-17.78,49.19_-46,110,74_-126,-46,190_339,-515,449
4.421_1L:-15.02,-15.26,47.97_-32,90,59_125,-79,127_339,-515,449
4.423_1L:-16.45,-17.37,47.20_-25,75,60_344,-41,57_524,-540,321
4.444_1L:-18.14,-19.42,46.72_-22,33,86_502,10,3_524,-540,321
4.479_1L:-19.58,-19.59,47.15_-10,-18,66_565,47,33_524,-540,321
4.482_1L:-21.40,-19.96,47.89_-27,-30,84_565,142,-107_524,-540,321
4.494_1L:-24.69,-21.15,49.10_-75,-32,147_565,39,-81_524,-540,321
4.525_1L:-26.64,-21.52,50.16_-37,-43,83_565,-145,42_524,-540,321
4.542_1L:-25.64,-20.22,51.02_46,-72,-70_523,-184,114_515,-619,141
4.558_1L:-23.54,-18.72,52.04_56,-73,-119_289,-201,148_515,-619,141
4.602_1L:-22.64,-18.60,52.83_-3,-37,-60_163,-238,177_515,-619,141
4.605_1L:-23.70,-19.35,53.51_-16,-10,-4_173,-297,222_515,-619,141
4.621_1L:-24.22,-19.51,53.51_-2,3,26_173,-289,203_515,-619,141
4.662_1L:-24.51,-19.84,53.36_-7,14,18_154,-267,161_515,-619,141
4.668_1L:-25.33,-20.74,53.47_-20,22,-1_167,-211,130_476,-639,202
4.686_1L:-27.69,-22.72,54.11_-23,26,13_213,-120,127_476,-639,202
4.720_1L:-29.16,-25.61,54.37_-9,19,29_237,-137,125_476,-639,202
4.732_1L:-30.44,-27.47,54.60_9,10,27_221,-154,130_476,-639,202
4.778_1L:-31.79,-28.98,55.00_11,5,17_217,-163,145_476,-639,202
4.780_1L:-32.81,-30.15,55.35_4,7,11_221,-162,147_476,-639,202
4.796_1L:-33.94,-31.31,55.71_1,6,19_223,-154,137_507,-623,157
4.836_1L:-35.45,-32.45,56.33_9,-3,32_247,-179,131_507,-623,157
4.838_1L:-36.45,-33.23,56.65_9,6,22_285,-215,114_507,-623,157
4.845_1L:-35.97,-33.51,56.30_7,25,-13_326,-252,121_507,-623,157
4.894_1L:-34.79,-33.96,55.31_16,54,-31_513,-187,185_507,-623,157
4.896_1L:-33.21,-34.32,53.78_31,69,-34_565,-145,183_507,-623,157
4.910_1L:-32.12,-34.64,52.24_33,73,-7_565,-113,123_570,-561,175
4.953_1L:-31.55,-35.34,49.85_29,99,41_565,-127,64_570,-561,175
4.957_1L:-29.77,-36.68,47.59_-3,127,-20_565,-108,65_570,-561,175
4.973_1L:-27.25,-38.43,46.65_-50,83,-96_565,227,-108_570,-561,175
5.012_1L:-28.60,-39.22,47.85_-52,-18,39_565,520,-367_570,-561,175
5.021_1L:-34.07,-36.86,50.82_52,-162,194_565,520,-355_570,-561,175
5.037_1L:-36.36,-31.80,53.62_160,-260,45_400,520,-118_564,-570,132
5.081_1L:-33.83,-26.69,57.13_126,-260,-189_-458,436,570_564,-570,132
5.086_1L:-31.26,-25.15,62.26_-51,-260,-257_-458,-237,570_564,-570,132
5.115_1L:-34.42,-21.55,66.36_49,-244,75_-458,-503,72_564,-570,132
5.150_1L:-32.39,-23.40,61.11_61,272,-1_-458,-503,98_564,-570,132
5.152_1L:-26.53,-25.07,57.91_4,175,-236_-107,520,16_564,-570,132
5.163_1L:-25.28,-24.88,57.06_36,36,-48_138,520,178_157,-611,397
5.209_1L:-26.00,-24.83,57.22_25,33,51_-84,75,212_157,-611,397
5.211_1L:-21.65,-22.78,55.67_-24,68,-13_-196,-133,238_157,-611,397
5.269_1L:-21.24,-22.87,55.37_-70,102,-8_-251,-114,245_157,-611,397
5.272_1L:-21.33,-24.79,54.75_-73,115,38_-260,-124,315_157,-611,397
5.274_1L:-22.51,-26.78,53.89_-57,118,102_-298,-131,257_157,-611,397
5.328_1L:-23.92,-28.65,52.97_-52,122,124_-199,-231,173_379,-655,299
5.331_1L:-25.44,-29.72,51.17_-51,146,99_-109,-198,149_379,-655,299
5.347_1L:-28.68,-28.12,50.01_-40,171,116_-76,-188,155_379,-655,299
5.385_1L:-32.31,-26.21,50.12_-52,108,103_51,-154,94_379,-655,299
5.388_1L:-34.74,-27.77,50.82_-71,67,81_279,-78,-15_379,-655,299
5.394_1L:-37.42,-33.68,52.32_-95,61,58_449,-75,-124_379,-655,299
5.410_1L:-38.59,-35.10,53.04_-62,37,54_565,-57,-70_587,-595,65
5.447_1L:-39.92,-35.40,53.49_-14,-3,52_565,27,-10_587,-595,65
5.458_1L:-41.88,-35.08,55.33_-33,-72,50_501,81,-23_587,-595,65
5.503_1L:-44.39,-35.09,57.95_-70,-80,52_565,-105,-115_587,-595,65
5.506_1L:-45.46,-34.77,59.11_-19,-51,20_565,-197,-16_587,-595,65
5.522_1L:-44.35,-33.31,58.03_91,-23,-29_565,-184,84_587,-595,65
5.563_1L:-43.11,-31.59,56.67_116,-21,-30_280,-162,122_503,-654,26
5.570_1L:-43.75,-31.34,57.11_39,-35,17_180,-181,117_503,-654,26
5.586_1L:-45.63,-32.04,58.42_-10,-21,31_181,-328,110_503,-654,26
5.622_1L:-45.61,-32.11,58.81_-2,-4,-7_198,-376,89_503,-654,26
5.624_1L:-45.14,-32.31,58.48_16,23,-12_199,-286,75_503,-654,26
5.681_1L:-45.65,-32.66,58.36_16,27,15_172,-246,91_503,-654,26
5.683_1L:-47.56,-33.03,58.98_9,17,37_172,-219,100_498,-652,15
5.697_1L:-49.71,-33.68,59.73_3,17,39_176,-229,102_498,-652,15
5.743_1L:-51.36,-34.38,60.30_-7,26,37_195,-204,99_498,-652,15
5.745_1L:-52.91,-35.43,60.95_-11,21,34_233,-193,106_498,-652,15
5.747_1L:-53.73,-36.45,61.36_-9,15,21_232,-214,112_498,-652,15
5.802_1L:-54.14,-37.42,61.68_-13,26,3_243,-227,114_498,-652,15
5.804_1L:-54.19,-38.48,61.68_-14,44,-1_287,-239,114_546,-603,-51
5.810_1L:-53.80,-39.35,61.15_1,45,-1_335,-245,122_546,-603,-51
5.862_1L:-52.87,-39.95,60.35_17,47,-21_388,-231,118_546,-603,-51
5.864_1L:-51.21,-40.63,58.94_33,66,-38_459,-180,103_546,-603,-51
5.874_1L:-48.78,-41.64,56.68_44,99,-45_532,-124,100_546,-603,-51
5.890_1L:-45.98,-42.64,54.23_47,110,-58_565,-54,88_546,-603,-51
5.922_1L:-42.31,-44.01,51.16_41,137,-74_565,73,-1_682,-436,43
5.938_1L:-38.72,-45.83,47.45_17,152,-54_565,265,-145_682,-436,43
5.981_1L:-37.65,-47.66,45.45_-27,110,17_565,520,-302_682,-436,43
5.985_1L:-37.85,-49.14,44.72_-43,67,38_565,520,-359_682,-436,43
6.002_1L:-37.33,-48.18,46.24_13,-75,-88_565,520,-367_682,-436,43
6.038_1L:-38.11,-43.31,49.10_145,-254,-69_510,520,-340_682,-436,43
6.048_1L:-37.54,-37.82,51.55_167,-260,-112_-352,520,26_545,-571,163
6.095_1L:-34.18,-33.17,55.51_112,-260,-257_-458,-503,570_545,-571,163
6.097_1L:-29.43,-25.88,57.81_265,-260,-257_-458,-503,570_545,-571,163
6.110_1L:-32.23,-25.82,57.31_33,34,172_-458,-503,-223_545,-571,163
6.154_1L:-31.34,-28.92,48.96_78,427,172_-432,-492,322_545,-571,163
6.158_1L:-25.62,-28.99,45.36_98,175,-203_-345,520,146_545,-571,163
6.172_1L:-23.72,-29.82,42.95_24,143,-22_-159,497,305_264,-471,527
6.214_1L:-22.10,-32.05,41.86_-57,132,-24_-345,139,328_264,-471,527
6.220_1L:-21.50,-34.98,41.19_-106,128,18_-303,124,294_264,-471,527
6.236_1L:-22.02,-37.23,40.46_-79,117,84_-294,-13,289_264,-471,527
6.271_1L:-22.98,-39.05,39.77_-54,101,105_-207,-88,256_264,-471,527
6.281_1L:-24.30,-38.88,39.31_-58,89,125_-106,-93,213_264,-471,527
6.296_1L:-26.03,-35.93,39.34_-83,80,123_178,-94,117_538,-496,365
6.342_1L:-28.75,-39.88,40.08_-103,77,102_321,-100,102_538,-496,365
6.348_1L:-29.93,-43.59,40.06_-119,102,75_381,-18,56_538,-496,365
6.362_1L:-31.67,-46.42,40.60_-127,77,93_418,44,-40_538,-496,365
6.409_1L:-36.09,-49.15,43.02_-149,22,155_510,63,-117_538,-496,365
6.411_1L:-41.29,-51.53,45.94_-149,11,178_565,35,-27_538,-496,365
6.424_1L:-43.39,-54.33,47.30_-122,74,68_565,-25,31_676,-447,-33
6.471_1L:-42.84,-56.96,48.12_-101,74,-57_482,-11,19_676,-447,-33
6.473_1L:-43.86,-57.78,50.36_-66,-15,-41_504,94,-51_676,-447,-33
6.488_1L:-47.92,-56.89,53.73_-30,-104,69_565,100,-38_676,-447,-33
6.531_1L:-52.66,-54.75,56.37_20,-136,133_452,-190,48_676,-447,-33
6.533_1L:-54.79,-52.86,57.91_27,-114,47_324,-356,67_676,-447,-33
6.537_1L:-54.38,-51.94,59.22_-1,-65,-76_262,-298,31_585,-543,-107
6.591_1L:-53.97,-51.67,60.99_-22,-39,-77_284,-176,-16_585,-543,-107
6.593_1L:-56.14,-52.01,63.28_-13,-25,3_286,-156,-25_585,-543,-107
6.601_1L:-58.54,-52.44,64.88_9,-17,41_278,-228,-1_585,-543,-107
6.650_1L:-59.19,-52.32,65.12_20,-3,23_238,-246,19_585,-543,-107
6.653_1L:-59.77,-52.20,65.75_15,6,-7_220,-240,44_585,-543,-107
6.665_1L:-60.42,-52.05,66.57_8,14,-14_244,-202,51_573,-562,-110
6.710_1L:-60.91,-52.09,66.97_20,13,2_313,-185,52_573,-562,-110
6.713_1L:-60.67,-51.94,66.22_41,6,27_322,-195,63_573,-562,-110
6.729_1L:-60.06,-51.92,65.32_41,17,16_334,-204,87_573,-562,-110
6.771_1L:-59.00,-52.51,64.52_21,42,-11_356,-163,65_573,-562,-110
6.776_1L:-57.73,-53.66,63.56_8,73,-16_461,-115,60_573,-562,-110
6.793_1L:-55.23,-55.12,61.58_23,104,-36_551,-109,79_651,-469,-69
6.831_1L:-50.49,-56.68,57.87_43,118,-75_565,-43,24_651,-469,-69
6.840_1L:-46.72,-57.51,54.31_58,105,-36_565,56,-60_651,-469,-69
6.857_1L:-41.97,-58.17,48.81_90,135,3_565,70,-68_651,-469,-69
6.889_1L:-36.07,-58.84,43.07_84,154,-44_565,7,-76_651,-469,-69
6.891_1L:-30.54,-59.70,38.59_39,129,-73_565,100,-145_651,-469,-69
6.946_1L:-27.55,-60.80,35.94_-7,98,-22_565,520,-299_791,-172,55
6.949_1L:-25.94,-61.13,35.79_-9,4,-80_434,520,-270_791,-172,55
6.968_1L:-26.30,-56.88,40.90_143,-244,-225_405,520,-210_791,-172,55
7.004_1L:-24.72,-48.41,42.76_372,-261,-165_-458,520,371_791,-172,55
7.006_1L:-21.70,-40.86,44.79_349,-260,-248_-458,-339,570_791,-172,55
7.032_1L:-20.40,-38.03,49.71_66,-260,-241_-458,-503,570_791,-172,55
7.063_1L:-28.05,-39.37,48.71_-38,39,436_-458,-503,-390_250,-596,405
7.077_1L:-20.40,-38.93,39.63_171,333,-61_-458,-503,206_250,-596,405
7.121_1L:-15.28,-39.22,35.50_57,209,-105_-183,520,399_250,-596,405
7.123_1L:-13.86,-40.08,32.55_2,164,57_-376,237,394_250,-596,405
7.125_1L:-12.69,-42.38,30.47_-88,150,45_-320,174,292_250,-596,405
7.179_1L:-12.36,-45.15,28.51_-111,138,89_-206,41,249_250,-596,405
7.181_1L:-11.28,-44.45,25.79_-77,130,110_-121,-34,287_348,-445,522
7.201_1L:-11.03,-42.74,23.71_-63,114,99_-65,16,282_348,-445,522
7.237_1L:-10.83,-41.18,22.24_-90,78,118_-10,29,207_348,-445,522
7.239_1L:-11.76,-41.70,21.68_-133,50,145_92,16,96_348,-445,522
7.248_1L:-14.31,-44.42,22.34_-136,42,152_231,-69,-3_348,-445,522
7.295_1L:-19.09,-50.12,24.89_-105,40,130_314,-77,-57_348,-445,522
7.297_1L:-21.23,-53.63,25.80_-72,59,86_437,-70,-42_629,-466,239
7.312_1L:-21.46,-55.80,25.38_-80,63,51_503,59,-132_629,-466,239
7.354_1L:-24.56,-57.75,28.00_-117,-17,72_565,62,-78_629,-466,239
7.359_1L:-28.24,-59.32,31.97_-110,-48,36_565,14,0_629,-466,239
7.376_1L:-30.05,-59.40,35.53_-42,-75,-50_565,-28,1_629,-466,239
7.412_1L:-31.15,-58.40,38.91_8,-97,-75_547,12,-46_629,-466,239
7.423_1L:-33.63,-57.32,42.18_8,-104,0_465,38,-64_656,-458,-68
7.483_1L:-38.03,-56.44,45.84_-14,-106,80_480,-149,-34_656,-458,-68
7.489_1L:-40.24,-55.88,48.29_-14,-73,19_462,-391,16_656,-458,-68
7.494_1L:-39.55,-55.70,49.21_-1,-24,-68_335,-369,20_656,-458,-68
7.503_1L:-37.98,-55.72,48.76_17,14,-58_267,-246,3_656,-458,-68
7.518_1L:-37.66,-55.74,48.39_25,22,-3_225,-218,26_656,-458,-68
7.556_1L:-39.99,-55.85,49.78_24,33,21_229,-216,56_543,-602,-58
7.565_1L:-41.26,-56.13,50.93_11,44,-6_219,-209,76_543,-602,-58
7.581_1L:-42.58,-56.00,52.35_7,27,-11_246,-136,62_543,-602,-58
7.617_1L:-44.86,-56.22,53.79_17,0,47_274,-111,61_543,-602,-58
7.628_1L:-46.34,-56.97,54.10_20,17,65_292,-244,112_543,-602,-58
7.660_1L:-45.30,-57.53,53.24_10,45,-3_295,-257,114_543,-602,-58
7.676_1L:-44.19,-58.19,52.67_0,41,-17_318,-137,67_590,-551,-63
7.692_1L:-44.78,-58.71,52.82_4,21,33_343,-87,42_590,-551,-63
7.738_1L:-44.10,-59.28,51.47_31,44,38_434,-96,53_590,-551,-63
7.740_1L:-40.29,-59.47,48.14_67,81,-35_500,-153,85_590,-551,-63
7.756_1L:-34.65,-59.65,43.95_73,99,-88_482,-43,-24_590,-551,-63
7.809_1L:-29.37,-60.17,39.68_50,122,-67_565,38,-50_590,-551,-63
7.812_1L:-23.94,-60.79,34.37_43,145,-21_565,72,-58_670,-446,-22
7.820_1L:-16.73,-61.05,26.82_58,182,-15_565,66,-70_670,-446,-22
7.836_1L:-10.25,-61.14,20.69_39,159,-40_565,194,-158_670,-446,-22
7.879_1L:-6.92,-61.67,17.05_-8,108,13_565,520,-247_670,-446,-22
7.881_1L:-5.99,-63.57,15.76_-88,52,33_528,520,-282_670,-446,-22
7.900_1L:-8.67,-64.51,21.58_-64,-120,-119_499,520,-283_670,-446,-22
7.939_1L:-13.03,-59.72,30.48_202,-260,-160_298,520,-220_799,-118,50
7.948_1L:-11.97,-50.13,35.20_437,-260,-241_-458,-302,570_799,-118,50
7.963_1L:-11.92,-47.26,41.53_105,-260,-257_-458,-503,570_799,-118,50
8.001_1L:-24.68,-47.30,48.86_-70,-251,351_-255,-503,-453_799,-118,50
8.010_1L:-21.77,-45.11,36.86_264,348,275_-458,-503,205_799,-118,50
8.025_1L:-13.74,-43.80,31.80_135,152,-257_-458,520,142_799,-118,50
8.062_1L:-11.35,-44.44,28.48_-4,118,-14_-11,520,414_277,-676,251
8.073_1L:-11.17,-46.06,26.91_-56,101,79_-229,85,402_277,-676,251
8.119_1L:-11.10,-47.83,24.74_-64,123,112_-286,68,317_277,-676,251
8.121_1L:-11.45,-49.16,22.91_-47,107,127_-399,-117,314_277,-676,251
8.135_1L:-11.54,-50.12,20.66_-23,111,127_-341,-131,323_277,-676,251
8.178_1L:-11.63,-51.01,18.29_-20,116,138_-203,-86,278_277,-676,251
8.180_1L:-12.15,-51.13,16.00_-39,116,149_-71,-76,179_497,-494,342
8.198_1L:-13.76,-49.54,15.00_-57,97,130_46,-135,99_497,-494,342
8.237_1L:-15.29,-50.49,14.50_-54,103,98_171,-29,36_497,-494,342
8.239_1L:-15.08,-53.09,13.12_-71,104,75_343,-12,-10_497,-494,342
8.247_1L:-16.51,-56.15,13.57_-85,40,86_565,57,-96_497,-494,342
8.281_1L:-19.65,-58.23,15.83_-117,-9,98_565,104,-95_497,-494,342
8.297_1L:-24.16,-60.61,20.87_-153,-59,38_565,80,-61_686,-447,80
8.311_1L:-28.47,-62.50,26.94_-138,-75,-32_565,91,-77_686,-447,80
8.355_1L:-32.72,-63.28,32.17_-89,-78,-5_565,65,-157_686,-447,80
8.358_1L:-36.17,-62.94,35.36_-20,-70,47_565,-124,-66_686,-447,80
8.375_1L:-36.86,-61.71,36.45_45,-55,-1_512,-368,8_686,-447,80
8.416_1L:-34.35,-60.52,36.10_68,-27,-107_321,-306,8_686,-447,80
8.422_1L:-30.98,-60.36,35.39_28,15,-129_211,-212,1_579,-538,-139
8.439_1L:-35.89,-60.54,40.72_-4,1,-34_259,-186,5_579,-538,-139
8.473_1L:-40.94,-60.73,44.68_-6,-20,60_285,-170,-4_579,-538,-139
8.486_1L:-44.24,-60.82,46.67_16,-8,73_299,-211,21_579,-538,-139
8.530_1L:-43.70,-60.84,45.88_29,24,17_253,-239,56_579,-538,-139
8.532_1L:-43.76,-60.86,46.38_9,20,-20_185,-209,61_579,-538,-139
8.535_1L:-47.91,-59.65,50.35_-10,-13,5_215,-145,54_580,-558,-80
8.589_1L:-52.47,-59.22,54.21_-16,-21,45_307,-177,30_580,-558,-80
8.591_1L:-53.45,-59.29,55.03_5,-1,24_369,-218,51_580,-558,-80
8.599_1L:-52.12,-59.32,54.09_33,21,-11_341,-202,53_580,-558,-80
8.646_1L:-51.08,-59.41,53.45_25,20,-10_326,-146,33_580,-558,-80
8.648_1L:-51.54,-59.75,53.69_8,15,25_387,-122,38_580,-558,-80
8.663_1L:-51.23,-60.11,52.72_22,37,45_480,-141,52_594,-537,-86
8.707_1L:-48.12,-60.70,49.40_55,77,7_533,-210,71_594,-537,-86
8.711_1L:-44.19,-60.77,46.19_73,68,-43_507,-205,39_594,-537,-86
8.727_1L:-40.38,-60.84,42.54_73,78,-13_515,-80,-23_594,-537,-86
8.766_1L:-36.06,-61.49,37.48_67,135,28_565,-40,-13_594,-537,-86
8.774_1L:-28.48,-62.67,29.66_61,203,-12_565,41,-39_594,-537,-86
8.791_1L:-20.93,-64.05,23.41_8,180,-83_565,495,-180_704,-401,-16
8.824_1L:-17.41,-65.85,20.51_-53,90,-26_565,520,-325_704,-401,-16
8.838_1L:-18.06,-66.59,22.97_-47,-32,-71_565,520,-236_704,-401,-16
8.883_1L:-21.36,-63.26,31.33_101,-231,-204_420,520,-187_704,-401,-16
8.885_1L:-20.83,-56.79,36.24_284,-260,-240_-148,520,177_704,-401,-16
8.900_1L:-18.70,-49.34,40.34_328,-260,-257_-458,183,570_704,-401,-16
8.942_1L:-18.06,-46.08,46.27_109,-260,-256_-458,-229,570_650,-431,165
8.948_1L:-29.64,-46.37,48.90_-21,-68,431_107,-503,-185_650,-431,165
8.965_1L:-18.96,-45.70,37.58_208,386,-134_-458,8,-3_650,-431,165
9.003_1L:-13.67,-44.35,35.43_102,66,-183_-65,520,107_650,-431,165
9.005_1L:-16.37,-44.05,34.99_31,26,176_-40,261,301_650,-431,165
9.028_1L:-18.50,-44.93,34.73_-30,36,133_-291,-14,213_650,-431,165
9.071_1L:-19.66,-46.17,33.39_-75,91,133_-276,-59,224_285,-457,503
9.075_1L:-20.52,-47.45,31.71_-61,115,135_-355,-224,295_285,-457,503
9.092_1L:-21.12,-49.14,30.12_-49,115,132_-339,-177,333_285,-457,503
9.140_1L:-22.05,-51.24,28.05_-60,129,165_-272,-93,307_285,-457,503
9.142_1L:-23.37,-53.65,25.93_-78,137,198_-103,-136,153_285,-457,503
9.153_1L:-27.83,-51.37,26.54_-72,95,195_25,-158,86_285,-457,503
9.200_1L:-31.71,-51.94,27.65_-57,72,160_226,-165,41_551,-558,219
9.203_1L:-36.92,-54.58,29.93_-43,85,125_485,-113,19_551,-558,219
9.217_1L:-38.14,-56.02,29.23_-31,80,126_495,-10,-49_551,-558,219
9.260_1L:-41.01,-58.28,29.84_-84,74,150_502,65,-109_551,-558,219
9.262_1L:-45.82,-60.49,33.35_-137,23,124_565,-13,-82_551,-558,219
9.266_1L:-51.23,-61.95,38.98_-140,-26,48_565,50,-122_551,-558,219
9.318_1L:-55.60,-62.58,43.96_-107,-40,19_565,91,-179_652,-476,-127
9.326_1L:-58.02,-62.16,46.40_-21,-42,28_565,42,-145_652,-476,-127
9.341_1L:-56.78,-61.42,44.95_66,-10,17_483,-56,-6_652,-476,-127
9.377_1L:-54.17,-60.98,42.52_76,20,-9_228,-138,9_652,-476,-127
9.379_1L:-56.12,-61.32,45.15_7,14,-40_140,-172,-1_652,-476,-127
9.405_1L:-61.00,-60.60,50.73_-50,-6,-29_219,-131,-41_652,-476,-127
9.436_1L:-67.53,-61.19,56.95_-49,-16,17_271,-155,-54_613,-483,-192
9.451_1L:-71.21,-61.37,59.83_3,-5,38_328,-178,-19_613,-483,-192
9.493_1L:-69.62,-61.65,58.17_48,30,4_298,-230,11_613,-483,-192
9.495_1L:-67.05,-62.20,56.45_43,45,-45_223,-234,22_613,-483,-192
9.499_1L:-66.61,-61.66,57.19_17,23,-60_207,-186,18_613,-483,-192
9.552_1L:-68.37,-60.54,59.44_3,-8,-24_245,-123,6_613,-483,-192
9.554_1L:-70.51,-60.40,61.33_9,-27,18_278,-132,9_624,-462,-187
9.563_1L:-71.67,-60.30,62.18_20,-19,22_273,-231,38_624,-462,-187
9.610_1L:-71.55,-60.09,62.43_12,-2,-8_271,-248,54_624,-462,-187
9.612_1L:-71.22,-60.03,62.64_9,-3,-16_299,-192,49_624,-462,-187
9.627_1L:-71.09,-60.08,62.58_15,8,7_342,-178,57_624,-462,-187
9.670_1L:-70.15,-60.69,61.77_23,40,-1_388,-160,50_624,-462,-187
9.674_1L:-68.81,-61.25,60.80_26,37,-14_415,-127,13_623,-472,-181
9.691_1L:-67.34,-61.28,59.64_39,14,-8_497,-78,3_623,-472,-181
9.728_1L:-64.14,-61.62,56.45_79,51,-6_565,-47,40_623,-472,-181
9.738_1L:-58.64,-62.35,51.65_103,97,-53_565,-86,67_623,-472,-181
9.796_1L:-54.97,-62.57,49.03_61,48,-52_565,-31,-45_623,-472,-181
9.799_1L:-56.70,-62.32,49.34_16,-11,97_565,307,-296_623,-472,-181
9.801_1L:-60.02,-63.23,48.84_0,49,214_565,120,-155_712,-370,-58
9.819_1L:-58.66,-65.28,47.58_-18,102,-3_565,346,-182_712,-370,-58
9.835_1L:-56.99,-65.70,49.44_-35,-2,-167_565,520,-274_712,-370,-58
9.881_1L:-59.63,-62.04,54.14_14,-228,-77_546,520,-214_712,-370,-58
9.887_1L:-61.76,-56.99,56.63_79,-260,5_130,520,7_712,-370,-58
9.899_1L:-60.21,-52.45,59.29_51,-260,-193_-458,-48,570_712,-370,-58
9.954_1L:-59.30,-48.76,64.77_-56,-260,-257_-458,-503,570_543,-593,-69
9.958_1L:-63.46,-44.73,69.63_-32,-246,49_-418,-503,-238_543,-593,-69
9.971_1L:-61.66,-47.69,64.91_97,221,101_-284,-503,176_543,-593,-69
9.986_1L:-53.68,-47.89,60.54_153,99,-242_-64,520,383_543,-593,-69
10.021_1L:-53.53,-47.38,60.65_34,-13,7_56,423,478_543,-593,-69
10.023_1L:-55.06,-47.49,62.27_-30,-19,37_-132,-61,314_543,-593,-69
10.069_1L:-55.46,-47.06,62.25_-39,23,79_-225,-156,214_229,-679,283
10.089_1L:-56.91,-46.80,61.09_14,88,162_-338,-419,301_229,-679,283
10.091_1L:-57.21,-48.47,59.17_42,126,123_-458,-503,415_229,-679,283
10.114_1L:-57.36,-50.49,57.28_28,144,121_-458,-361,367_229,-679,283
10.156_1L:-57.70,-53.87,55.65_-22,189,119_-407,-251,234_229,-679,283
10.159_1L:-57.82,-56.97,53.63_-13,187,130_-170,-107,119_229,-679,283
10.177_1L:-55.61,-55.11,49.40_15,184,122_87,-98,23_455,-697,39
10.219_1L:-55.43,-57.79,49.42_-50,125,19_298,134,-137_455,-697,39
10.221_1L:-59.33,-60.50,53.72_-113,25,36_565,275,-231_455,-697,39
10.225_1L:-65.09,-60.83,58.58_-103,-37,110_565,83,-176_455,-697,39
10.280_1L:-68.24,-61.41,62.45_-81,-4,14_565,-93,-56_455,-697,39
10.282_1L:-67.95,-62.03,64.64_-45,15,-96_565,59,-131_455,-697,39
10.289_1L:-68.05,-62.17,65.52_-4,3,-11_565,142,-162_542,-584,-160
10.340_1L:-69.10,-61.96,65.49_21,-6,73_565,-7,-95_542,-584,-160
10.342_1L:-68.97,-60.92,65.94_25,-51,-7_444,-313,9_542,-584,-160
10.353_1L:-67.82,-60.06,67.02_7,-51,-93_278,-375,-2_542,-584,-160
10.369_1L:-67.17,-60.21,68.29_-17,-2,-75_204,-215,-45_542,-584,-160
10.404_1L:-70.96,-60.16,72.11_-17,35,0_242,-221,-9_542,-584,-160
10.417_1L:-72.69,-60.11,73.41_5,24,33_276,-221,-2_521,-615,-129
10.466_1L:-73.10,-59.93,73.58_25,5,27_242,-249,9_521,-615,-129
10.468_1L:-72.95,-59.36,73.55_35,-2,6_234,-231,21_521,-615,-129
10.481_1L:-73.05,-58.76,73.92_26,7,0_221,-208,33_521,-615,-129
10.526_1L:-73.78,-57.82,74.87_11,-7,7_266,-181,45_521,-615,-129
10.528_1L:-74.60,-57.24,75.32_17,-21,42_321,-131,41_521,-615,-129
10.544_1L:-75.11,-57.09,75.23_28,-17,54_307,-186,43_538,-590,-138
10.586_1L:-74.36,-57.30,74.93_25,14,-4_298,-282,60_538,-590,-138
10.592_1L:-73.59,-57.73,75.14_7,24,-32_314,-199,17_538,-590,-138
10.608_1L:-74.14,-58.19,75.80_-5,21,19_376,-171,10_538,-590,-138
10.645_1L:-74.84,-59.09,75.81_5,50,57_450,-212,22_538,-590,-138
10.647_1L:-73.76,-60.36,74.24_39,77,33_553,-249,52_538,-590,-138
10.672_1L:-70.73,-61.39,71.50_69,78,-16_549,-223,28_580,-543,-166
10.706_1L:-66.55,-62.48,67.52_79,83,-15_565,-63,-21_580,-543,-166
10.708_1L:-62.52,-64.30,62.96_72,141,21_565,-20,-5_580,-543,-166
10.765_1L:-58.85,-67.22,59.98_-4,167,-31_565,70,-16_580,-543,-166
10.768_1L:-59.16,-70.82,62.13_-122,152,-76_565,520,-129_580,-543,-166
10.770_1L:-63.75,-73.05,69.48_-147,50,-112_565,520,-250_580,-543,-166
10.828_1L:-63.66,-68.97,72.16_60,-221,-130_521,520,-173_745,-289,-158
10.831_1L:-58.19,-61.46,68.78_217,-260,-102_-458,520,268_745,-289,-158
10.846_1L:-59.34,-57.99,75.63_-63,-261,-252_-458,-503,570_745,-289,-158
10.887_1L:-58.76,-53.83,80.33_-6,-260,-227_-458,-400,570_745,-289,-158
10.890_1L:-66.46,-51.77,77.74_148,-71,528_-458,-503,-453_745,-289,-158
10.909_1L:-49.90,-55.81,62.39_268,394,-196_-458,-503,75_745,-289,-158
10.949_1L:-46.39,-55.90,61.89_22,15,-160_-184,520,153_198,-756,84
10.951_1L:-48.28,-56.11,63.16_-10,-1,69_-64,-49,329_198,-756,84
10.972_1L:-47.15,-55.10,62.36_-23,12,43_-191,-21,250_198,-756,84
11.010_1L:-46.17,-53.71,59.81_-32,72,141_-455,-324,256_198,-756,84
11.012_1L:-47.35,-55.89,58.94_-39,120,135_-446,-356,325_198,-756,84
11.034_1L:-48.15,-57.79,56.99_-5,123,157_-458,-293,338_198,-756,84
11.055_1L:-48.88,-59.16,54.30_27,118,195_-357,-242,263_357,-716,160
11.079_1L:-48.22,-61.47,50.46_12,152,157_-283,-215,158_357,-716,160
11.094_1L:-48.04,-63.34,48.57_-16,117,110_-109,-187,82_357,-716,160
11.137_1L:-50.12,-60.69,48.99_-15,119,83_110,-128,45_357,-716,160
11.139_1L:-51.25,-62.69,49.64_-66,120,47_380,-168,-42_357,-716,160
11.158_1L:-54.92,-65.17,52.68_-116,70,75_565,-30,-141_357,-716,160
11.195_1L:-63.30,-66.68,60.56_-177,-12,89_565,35,-212_554,-608,-87
11.198_1L:-67.07,-67.97,65.67_-97,21,-27_565,117,-138_554,-608,-87
11.222_1L:-62.88,-68.78,63.36_36,61,-96_565,223,-90_554,-608,-87
11.255_1L:-59.96,-68.02,61.56_60,-16,-49_461,62,-54_554,-608,-87
11.257_1L:-62.25,-66.86,64.49_-12,-81,-6_264,-174,-67_554,-608,-87
11.271_1L:-69.19,-66.56,71.82_-65,-38,0_202,-351,-73_554,-608,-87
11.317_1L:-71.66,-67.36,74.68_-60,23,5_225,-330,-81_512,-607,-167
11.320_1L:-72.41,-68.31,75.20_-10,42,30_231,-276,-54_512,-607,-167
11.335_1L:-72.72,-68.45,75.30_14,23,24_180,-248,-8_512,-607,-167
11.380_1L:-75.37,-66.87,78.15_-2,18,-3_186,-133,2_512,-607,-167
11.382_1L:-77.70,-66.32,80.58_-14,15,8_215,-126,-14_512,-607,-167
11.399_1L:-81.37,-65.84,83.69_-11,1,41_241,-149,-27_512,-607,-167
11.440_1L:-84.63,-65.13,86.09_1,-8,53_276,-182,-21_533,-555,-229
11.446_1L:-85.42,-64.46,86.56_19,-13,27_294,-189,-13_533,-555,-229
11.463_1L:-84.62,-64.11,86.04_32,-7,-4_283,-173,-6_533,-555,-229
11.501_1L:-83.95,-63.82,85.70_31,-1,-7_270,-165,-2_533,-555,-229
11.510_1L:-83.75,-63.29,85.46_31,-9,12_297,-163,-4_533,-555,-229
11.526_1L:-83.57,-62.85,84.76_41,-17,38_343,-179,-6_533,-555,-229
11.562_1L:-82.35,-62.75,83.49_46,0,13_363,-252,5_534,-550,-239
11.574_1L:-79.93,-63.11,81.90_48,24,-33_467,-166,-43_534,-550,-239
11.590_1L:-77.36,-63.83,79.47_63,49,-3_547,-151,-26_534,-550,-239
11.624_1L:-74.05,-64.94,75.81_83,82,17_565,-180,-7_534,-550,-239
11.626_1L:-69.69,-66.11,71.57_82,89,-7_565,-133,-72_534,-550,-239
11.653_1L:-65.83,-67.03,67.26_81,85,24_565,51,-142_534,-550,-239
11.691_1L:-61.12,-68.01,61.15_98,104,68_565,139,-139_657,-455,-136
11.701_1L:-57.14,-68.89,56.53_60,84,30_565,291,-161_657,-455,-136
11.717_1L:-55.54,-70.03,56.51_-21,53,-68_565,520,-170_657,-455,-136
11.750_1L:-55.37,-69.58,60.08_-32,-55,-177_565,520,-119_657,-455,-136
11.763_1L:-53.71,-65.09,63.89_75,-237,-252_565,520,-38_657,-455,-136
11.808_1L:-49.79,-59.41,64.64_183,-260,-230_-458,238,570_657,-455,-136
11.810_1L:-48.53,-55.08,69.53_50,-260,-257_-458,-503,570_579,-551,63
11.826_1L:-55.24,-51.43,77.92_-66,-260,20_-458,-503,-383_579,-551,63
11.869_1L:-57.11,-52.31,70.41_191,178,423_377,-503,-447_579,-551,63
11.872_1L:-46.51,-51.86,63.38_224,129,-257_-458,520,-9_579,-551,63
11.875_1L:-45.90,-52.21,62.68_23,42,19_139,520,406_579,-551,63
11.930_1L:-49.21,-52.29,64.18_-20,-17,138_-78,-85,501_579,-551,63
11.932_1L:-52.71,-53.63,64.89_-41,50,174_-250,-126,280_268,-669,274
11.953_1L:-54.98,-56.00,64.00_-24,123,182_-458,-479,290_268,-669,274
11.990_1L:-55.01,-57.93,62.02_11,126,119_-389,-259,296_268,-669,274
11.992_1L:-55.04,-58.92,59.72_44,93,139_-286,-264,251_268,-669,274
12.003_1L:-55.59,-60.43,57.66_20,105,151_-163,-248,134_268,-669,274
12.049_1L:-56.55,-60.46,56.42_-29,161,132_88,-233,-14_268,-669,274
12.051_1L:-63.31,-60.54,60.87_-35,160,93_308,-177,-91_479,-702,-9
12.067_1L:-65.23,-62.40,62.62_-50,73,39_395,-99,-123_479,-702,-9
12.109_1L:-66.91,-63.07,64.63_-40,19,18_565,58,-54_479,-702,-9
12.114_1L:-70.30,-63.60,67.64_-62,5,60_565,143,-135_479,-702,-9
12.131_1L:-77.46,-64.31,73.32_-118,3,128_565,227,-237_479,-702,-9
12.168_1L:-82.73,-65.90,77.87_-102,69,81_565,66,-167_479,-702,-9
12.178_1L:-82.82,-67.68,79.35_-27,89,-50_545,-111,-29_526,-557,-246
12.195_1L:-78.81,-67.56,77.74_44,-1,-108_392,-88,-21_526,-557,-246
12.229_1L:-76.12,-66.08,75.85_67,-65,-32_220,-111,-25_526,-557,-246
12.242_1L:-80.05,-65.35,79.31_2,-34,35_142,-246,-23_526,-557,-246
12.286_1L:-85.26,-63.20,84.32_-56,22,30_250,-305,-41_526,-557,-246
12.288_1L:-87.22,-64.02,86.93_-50,42,-3_294,-260,-62_526,-557,-246
12.291_1L:-87.57,-64.37,87.90_-9,19,-12_301,-204,-62_534,-548,-230
12.345_1L:-86.98,-63.65,87.34_30,-31,12_266,-167,-53_534,-548,-230
12.348_1L:-88.31,-62.63,88.06_30,-36,39_232,-156,-38_534,-548,-230
12.355_1L:-90.08,-61.97,89.64_10,-7,20_267,-216,-1_534,-548,-230
12.405_1L:-89.62,-61.67,89.66_16,3,-8_305,-173,9_534,-548,-230
12.407_1L:-88.36,-61.41,88.71_39,-11,-3_301,-155,22_534,-548,-230
12.419_1L:-87.21,-60.95,87.56_43,-26,13_273,-180,22_535,-553,-223
12.466_1L:-86.51,-60.40,87.05_25,-13,10_273,-253,23_535,-553,-223
12.469_1L:-86.09,-60.63,87.28_11,13,-15_312,-258,16_535,-553,-223
12.483_1L:-85.39,-61.13,87.28_16,27,-17_372,-198,-4_535,-553,-223
12.529_1L:-84.23,-61.75,86.48_35,37,-6_455,-163,-4_535,-553,-223
12.531_1L:-82.26,-62.50,84.79_53,45,-6_510,-153,-8_535,-553,-223
12.546_1L:-79.33,-63.54,82.15_72,68,-12_565,-131,-52_576,-534,-187
12.588_1L:-73.91,-65.24,76.81_102,106,-12_565,-83,-70_576,-534,-187
12.594_1L:-67.90,-66.47,70.96_115,109,-19_565,5,-67_576,-534,-187
12.611_1L:-62.24,-66.78,65.71_105,64,-25_565,151,-100_576,-534,-187
12.650_1L:-59.19,-66.43,63.37_67,13,-30_565,497,-124_576,-534,-187
12.654_1L:-58.85,-66.96,65.32_-34,9,-90_537,520,-117_576,-534,-187
12.671_1L:-61.06,-66.89,72.87_-126,-76,-239_501,520,-108_717,-400,-30
12.710_1L:-57.79,-61.79,75.51_77,-241,-257_310,520,51_717,-400,-30
12.718_1L:-49.64,-54.62,71.75_326,-260,-258_-458,331,570_717,-400,-30
12.735_1L:-47.32,-49.97,75.39_81,-260,-254_-458,-376,570_717,-400,-30
12.769_1L:-61.20,-48.91,80.77_-95,-168,544_-458,-503,332_717,-400,-30
12.781_1L:-50.30,-53.66,67.53_215,458,-16_-458,133,-324_717,-400,-30
12.827_1L:-43.88,-52.68,63.60_147,53,-165_113,520,155_359,-632,296
12.829_1L:-47.83,-51.79,64.32_39,-22,179_22,-5,348_359,-632,296
12.845_1L:-47.91,-51.41,64.61_-29,-4,61_-159,-4,208_359,-632,296
12.885_1L:-45.02,-48.01,61.88_-40,41,95_-161,-114,212_359,-632,296
12.887_1L:-45.48,-45.14,60.79_-25,76,139_-295,-312,305_359,-632,296
12.909_1L:-47.32,-46.43,60.51_-8,81,140_-360,-346,382_359,-632,296
12.938_1L:-49.56,-47.63,60.21_-4,79,168_-352,-227,358_415,-682,224
12.954_1L:-52.88,-50.09,59.77_-35,116,204_-171,-265,185_415,-682,224
12.973_1L:-55.87,-52.91,59.68_-75,159,197_17,-243,86_415,-682,224
13.005_1L:-60.78,-51.75,61.68_-68,140,155_166,-206,8_415,-682,224
13.007_1L:-66.10,-52.50,65.31_-53,72,99_362,-99,-104_415,-682,224
13.024_1L:-69.83,-52.57,69.34_-94,-33,54_550,-10,-187_415,-682,224
13.053_1L:-74.22,-51.47,73.58_-92,-91,82_565,94,-177_551,-609,-119
13.094_1L:-77.03,-51.76,76.09_-56,0,55_565,-19,-144_551,-609,-119
13.096_1L:-75.41,-53.50,75.78_6,98,-61_565,17,-120_551,-609,-119
13.117_1L:-72.70,-55.35,74.23_36,109,-62_565,98,-134_551,-609,-119
13.152_1L:-71.76,-54.39,74.26_31,-46,-38_448,-88,-55_551,-609,-119
13.154_1L:-73.00,-51.62,75.66_18,-145,21_332,-101,-76_551,-609,-119
13.180_1L:-75.40,-50.41,77.84_-16,-98,42_207,-218,-95_504,-614,-147
13.214_1L:-78.96,-50.53,81.12_-17,12,11_264,-290,-71_504,-614,-147
13.216_1L:-78.86,-51.55,81.14_7,58,7_213,-226,-47_504,-614,-147
13.230_1L:-80.39,-51.72,81.86_30,35,31_215,-179,-4_504,-614,-147
13.275_1L:-81.12,-51.60,81.74_46,6,38_196,-205,27_504,-614,-147
13.278_1L:-80.64,-50.88,81.32_36,2,2_175,-211,43_504,-614,-147
13.294_1L:-80.04,-49.81,81.26_15,1,-10_179,-159,37_526,-589,-172
13.333_1L:-80.31,-49.31,81.50_6,-13,25_225,-120,20_526,-589,-172
13.342_1L:-80.82,-50.15,81.45_25,-16,42_310,-152,45_526,-589,-172
13.358_1L:-79.93,-50.16,80.93_36,-12,-10_312,-260,70_526,-589,-172
13.391_1L:-78.98,-49.84,80.78_27,-12,-29_320,-204,-6_526,-589,-172
13.405_1L:-79.50,-49.59,81.13_10,-12,28_412,-203,-13_526,-589,-172
13.449_1L:-80.55,-49.87,81.07_19,18,71_540,-283,40_513,-601,-176
13.453_1L:-79.24,-51.28,79.97_40,78,-10_565,-348,44_513,-601,-176
13.469_1L:-76.35,-52.63,78.65_45,80,-83_565,-210,-46_513,-601,-176
13.508_1L:-73.42,-53.95,76.26_74,94,-41_565,-95,-72_513,-601,-176
13.511_1L:-69.88,-55.65,72.52_95,124,-10_565,-80,-52_513,-601,-176
13.533_1L:-67.11,-56.73,69.96_68,89,-18_565,-14,-71_513,-601,-176
13.570_1L:-66.91,-56.83,69.59_25,15,23_565,214,-154_689,-449,-57
13.573_1L:-68.05,-56.61,70.68_-16,-19,12_565,301,-130_689,-449,-57
13.597_1L:-65.05,-54.75,71.97_9,-105,-209_437,478,-69_689,-449,-57
13.634_1L:-60.31,-50.11,72.05_117,-232,-257_-111,520,199_689,-449,-57
13.636_1L:-56.17,-44.89,73.31_108,-260,-257_-458,511,570_689,-449,-57
13.660_1L:-53.46,-40.78,76.40_32,-260,-257_-458,-37,570_689,-449,-57
13.693_1L:-53.40,-36.66,80.00_12,-260,-118_-458,-503,269_263,-642,327
13.706_1L:-53.06,-38.20,76.15_116,180,132_-114,-503,-388_263,-642,327
13.740_1L:-44.70,-39.06,72.42_121,147,-255_-458,-310,207_263,-642,327
13.756_1L:-44.78,-39.75,72.16_17,67,46_-28,520,211_263,-642,327
13.758_1L:-47.18,-41.16,72.77_-32,67,137_-20,113,305_263,-642,327
13.785_1L:-45.18,-42.52,71.01_-63,103,93_-310,-103,251_263,-642,327
13.818_1L:-46.70,-45.37,70.90_-67,137,117_-422,-198,300_328,-627,314
13.833_1L:-48.28,-48.02,70.59_-53,126,120_-381,-169,333_328,-627,314
13.864_1L:-50.11,-50.36,70.04_-39,123,147_-271,-139,283_328,-627,314
13.880_1L:-52.37,-52.87,69.58_-49,132,173_-147,-125,225_328,-627,314
13.895_1L:-52.27,-51.04,66.57_-18,130,192_-22,-158,156_328,-627,314
13.939_1L:-53.49,-49.79,64.65_-8,137,192_26,-131,38_328,-627,314
13.942_1L:-56.70,-51.51,65.08_-38,94,176_166,-184,-49_602,-584,4
13.944_1L:-66.23,-53.54,70.76_-71,78,153_545,6,-57_602,-584,4
13.998_1L:-69.77,-56.00,73.70_-119,89,64_565,-21,-10_602,-584,4
14.000_1L:-72.42,-57.36,78.42_-148,29,-68_565,187,-155_602,-584,4
14.007_1L:-77.01,-57.33,84.59_-160,-42,-31_565,313,-268_602,-584,4
14.023_1L:-82.29,-56.62,88.35_-98,-58,112_565,133,-212_602,-584,4
14.058_1L:-83.89,-56.89,88.86_-13,13,55_565,-176,-56_554,-487,-296
14.071_1L:-80.04,-57.11,87.26_50,17,-121_521,-329,-46_554,-487,-296
14.116_1L:-76.20,-56.19,86.02_53,-39,-141_250,-186,-89_554,-487,-296
14.119_1L:-77.83,-55.08,88.57_-2,-64,-56_117,-109,-116_554,-487,-296
14.135_1L:-83.70,-53.93,93.04_-33,-61,61_138,-109,-129_554,-487,-296
14.176_1L:-89.89,-53.56,97.27_-20,-20,74_190,-234,-89_554,-487,-296
14.178_1L:-91.57,-53.06,98.28_16,19,12_256,-260,-54_529,-543,-252
14.195_1L:-90.78,-53.25,97.64_33,12,-8_209,-146,-24_529,-543,-252
14.237_1L:-91.47,-53.04,98.09_19,-19,9_277,-118,-8_529,-543,-252
14.242_1L:-91.91,-53.70,98.25_10,-14,22_333,-148,-4_529,-543,-252
14.258_1L:-91.99,-53.83,98.20_14,2,13_349,-155,-19_529,-543,-252
14.297_1L:-91.63,-53.93,97.75_26,6,7_365,-162,-9_529,-543,-252
14.305_1L:-90.69,-53.59,96.70_46,-18,2_378,-167,-13_548,-528,-238
14.323_1L:-90.10,-53.00,95.64_43,-27,20_351,-157,-40_548,-528,-238
14.356_1L:-90.07,-53.12,95.06_33,8,32_393,-185,-44_548,-528,-238
14.369_1L:-89.17,-54.39,93.97_47,67,8_505,-222,-14_548,-528,-238
14.415_1L:-86.90,-55.78,92.08_70,79,-30_523,-166,-50_548,-528,-238
14.417_1L:-84.55,-56.61,89.78_77,50,-12_530,-46,-118_548,-528,-238
14.420_1L:-82.98,-57.49,87.01_90,59,52_565,-13,-106_637,-469,-165
14.476_1L:-79.95,-59.07,82.62_104,93,36_565,-93,-20_637,-469,-165
14.479_1L:-76.13,-59.88,79.60_82,62,-62_550,-7,-40_637,-469,-165
14.483_1L:-73.00,-59.51,77.46_69,-1,-60_560,181,-84_637,-469,-165
14.535_1L:-71.78,-58.29,76.37_60,-51,-9_489,193,-76_637,-469,-165
14.537_1L:-70.37,-56.62,76.29_41,-78,-61_411,87,1_637,-469,-165
14.547_1L:-67.72,-55.02,77.72_1,-96,-199_246,51,40_686,-445,-2
14.594_1L:-62.40,-55.38,77.51_30,-189,-209_105,161,91_686,-445,-2
14.596_1L:-57.65,-53.29,76.99_34,-259,-158_-419,188,329_686,-445,-2
14.611_1L:-55.81,-48.85,80.49_31,-260,-233_-458,-111,540_686,-445,-2
14.654_1L:-52.02,-43.80,81.82_123,-260,-257_-458,-292,453_686,-445,-2
14.658_1L:-48.01,-37.75,82.28_190,-260,-223_-458,-460,149_686,-445,-2
14.675_1L:-53.80,-37.38,84.34_-51,-75,241_-307,-341,-169_93,-655,393
14.711_1L:-56.38,-41.50,81.36_17,245,249_-210,-503,237_93,-655,393
14.722_1L:-52.05,-42.18,78.98_96,109,-117_-263,-182,250_93,-655,393
14.768_1L:-50.99,-42.37,76.83_94,85,53_-284,399,298_93,-655,393
14.771_1L:-53.32,-44.41,75.20_19,150,223_-350,105,343_93,-655,393
14.785_1L:-55.40,-48.28,75.61_-95,177,127_-458,-305,386_93,-655,393
14.829_1L:-56.25,-51.72,76.14_-89,164,57_-170,-56,207_426,-671,163
14.831_1L:-52.67,-49.07,70.89_7,137,132_-22,-126,161_426,-671,163
14.850_1L:-52.57,-47.99,67.86_42,125,172_-46,-200,106_426,-671,163
14.889_1L:-55.17,-46.48,67.19_-10,155,161_22,-272,70_426,-671,163
14.891_1L:-59.20,-46.32,69.96_-91,123,78_179,-308,2_426,-671,163
14.899_1L:-60.42,-48.57,71.84_-75,104,2_565,-75,44_426,-671,163
14.948_1L:-59.08,-49.88,70.69_27,97,1_565,34,58_633,-520,-47
14.950_1L:-59.80,-49.77,69.08_54,24,98_565,262,-28_633,-520,-47
14.963_1L:-64.71,-49.37,70.60_-30,-45,202_462,148,-99_633,-520,-47
15.008_1L:-70.13,-49.55,73.61_-92,-30,159_535,19,-49_633,-520,-47
15.010_1L:-69.65,-51.16,73.90_-36,80,-43_565,32,130_633,-520,-47
15.026_1L:-65.73,-51.32,72.68_39,23,-167_551,-52,52_633,-520,-47
15.070_1L:-63.35,-48.86,72.34_68,-110,-113_252,-126,-32_622,-499,-82
15.074_1L:-66.90,-48.80,77.14_-47,-111,-53_126,-247,-96_622,-499,-82
15.091_1L:-74.30,-47.78,85.10_-157,-48,-24_270,-266,-93_622,-499,-82
15.131_1L:-76.97,-48.19,88.01_-108,-4,19_351,-224,-81_622,-499,-82
15.136_1L:-78.56,-48.90,88.59_-29,32,49_316,-206,-73_622,-499,-82
15.152_1L:-78.68,-49.58,87.96_13,41,22_271,-213,-35_622,-499,-82
15.192_1L:-78.42,-50.36,87.69_15,39,-26_249,-170,-10_577,-528,-180
15.200_1L:-78.73,-51.28,88.34_4,25,-33_251,-113,-1_577,-528,-180
15.216_1L:-79.45,-52.49,88.60_15,-3,9_289,-112,4_577,-528,-180
15.255_1L:-80.03,-53.20,88.08_32,-10,44_273,-183,21_577,-528,-180
15.263_1L:-80.22,-53.18,87.38_31,-2,32_265,-216,35_577,-528,-180
15.280_1L:-80.03,-53.12,87.04_16,5,1_277,-202,33_577,-528,-180
15.316_1L:-80.03,-53.16,86.95_8,3,0_305,-164,12_595,-513,-171
15.327_1L:-80.47,-53.65,86.83_13,14,25_373,-147,12_595,-513,-171
15.360_1L:-79.87,-54.33,85.86_31,42,11_447,-168,49_595,-513,-171
15.376_1L:-78.06,-55.13,84.66_37,52,-44_447,-149,45_595,-513,-171
15.378_1L:-76.06,-55.93,83.60_30,49,-56_477,-70,5_595,-513,-171
15.436_1L:-74.52,-56.97,82.48_27,66,-30_565,-10,-22_595,-513,-171
15.438_1L:-73.51,-58.20,81.29_23,73,3_565,21,-72_678,-424,-124
15.441_1L:-73.07,-59.05,79.68_30,53,40_565,40,-125_678,-424,-124
15.495_1L:-72.93,-58.93,78.20_43,7,53_565,84,-104_678,-424,-124
15.498_1L:-72.48,-58.43,76.94_46,-14,29_565,225,-141_678,-424,-124
15.505_1L:-73.29,-57.77,77.78_-8,-38,0_533,396,-211_678,-424,-124
15.521_1L:-74.89,-56.56,80.65_-60,-85,-48_314,301,-110_678,-424,-124
15.556_1L:-73.44,-54.40,82.39_-18,-122,-154_217,291,138_655,-460,-106
15.569_1L:-65.34,-47.89,77.79_252,-255,-223_-132,1,312_655,-460,-106
15.616_1L:-57.81,-39.99,74.84_186,-260,-190_-458,121,399_655,-460,-106
15.618_1L:-58.59,-36.76,79.98_-87,-261,-123_-458,-503,124_655,-460,-106
15.633_1L:-66.86,-33.95,85.63_-139,-233,261_110,-503,-205_655,-460,-106
15.677_1L:-66.95,-36.21,83.25_53,155,78_-5,-503,110_655,-460,-106
15.680_1L:-60.07,-37.06,79.95_111,102,-257_-92,259,193_311,-683,142
15.736_1L:-52.51,-35.31,77.63_101,-36,-168_-67,477,232_311,-683,142
15.738_1L:-53.60,-34.55,79.54_-3,-52,27_-100,198,249_311,-683,142
15.740_1L:-52.87,-33.99,79.30_-8,-9,95_-6,-101,233_311,-683,142
15.757_1L:-51.42,-31.86,78.10_-10,45,107_-185,-296,182_311,-683,142
15.795_1L:-53.20,-32.82,78.12_8,71,122_-228,-323,202_311,-683,142
15.804_1L:-55.10,-34.23,77.47_21,103,144_-310,-326,217_367,-707,59
15.821_1L:-56.62,-36.43,75.80_9,135,130_-458,-335,234_367,-707,59
15.853_1L:-56.70,-39.51,73.82_-6,186,76_-390,-286,158_367,-707,59
15.868_1L:-56.19,-42.37,71.80_-2,184,54_-139,-205,85_367,-707,59
15.911_1L:-57.09,-38.84,69.75_60,150,87_67,-83,27_367,-707,59
15.913_1L:-57.46,-40.44,67.64_45,131,105_111,-145,-6_367,-707,59
15.932_1L:-59.43,-42.08,67.85_-3,92,70_313,-65,-12_622,-544,-69
15.970_1L:-61.90,-45.56,69.91_-83,32,26_481,-20,-97_622,-544,-69
15.972_1L:-64.23,-46.30,71.35_-65,9,57_565,144,-100_622,-544,-69
15.995_1L:-65.37,-46.45,71.27_-3,7,54_565,81,1_622,-544,-69
16.028_1L:-65.50,-46.82,70.61_11,26,21_540,45,-87_622,-544,-69
16.030_1L:-66.73,-47.43,71.37_-41,18,26_519,-18,-90_622,-544,-69
16.045_1L:-68.82,-47.34,72.66_-44,-24,51_565,-107,25_601,-486,-214
16.089_1L:-68.79,-46.43,72.23_31,-34,8_565,-177,56_601,-486,-214
16.093_1L:-67.03,-45.37,70.98_68,-34,-52_375,-209,35_601,-486,-214
16.109_1L:-65.21,-44.75,70.58_30,-23,-84_264,-201,1_601,-486,-214
16.147_1L:-65.36,-45.33,72.19_-34,-7,-82_219,-188,-17_601,-486,-214
16.156_1L:-68.34,-46.36,75.60_-68,-2,-33_239,-126,-38_601,-486,-214
16.207_1L:-72.08,-48.49,78.54_-52,11,22_284,-125,-28_580,-521,-181
16.209_1L:-74.48,-50.04,79.75_-7,8,38_269,-186,-14_580,-521,-181
16.217_1L:-75.44,-50.40,80.07_11,6,13_229,-202,-14_580,-521,-181
16.233_1L:-76.65,-50.31,81.17_-1,-3,-16_247,-181,-12_580,-521,-181
16.265_1L:-77.71,-50.35,82.16_-3,-14,-14_307,-156,7_580,-521,-181
16.280_1L:-77.90,-50.46,81.89_18,-12,7_343,-151,10_580,-521,-181
16.323_1L:-77.83,-50.18,80.94_36,-7,27_360,-177,8_581,-514,-194
16.328_1L:-77.57,-50.08,80.42_24,1,7_363,-211,10_581,-514,-194
16.344_1L:-76.96,-50.40,80.30_8,20,-28_435,-183,25_581,-514,-194
16.391_1L:-75.50,-51.12,79.43_27,45,-40_536,-143,56_581,-514,-194
16.394_1L:-73.72,-51.94,77.93_45,59,-32_565,-81,24_581,-514,-194
16.408_1L:-72.30,-53.05,77.03_19,66,-35_564,-84,-50_581,-514,-194
16.425_1L:-70.69,-55.02,76.38_-5,111,-57_565,-30,-73_672,-435,-126
16.463_1L:-67.55,-57.38,74.08_18,126,-67_565,63,-77_672,-435,-126
16.472_1L:-65.34,-58.37,72.36_26,70,-49_565,169,-73_672,-435,-126
16.488_1L:-64.85,-58.33,72.95_-11,-8,-58_535,256,-83_672,-435,-126
16.525_1L:-66.12,-56.82,75.24_-25,-102,-43_464,355,-95_672,-435,-126
16.536_1L:-67.18,-53.58,77.29_11,-178,-40_284,223,-8_672,-435,-126
16.581_1L:-64.93,-50.43,78.31_44,-210,-168_-1,66,184_606,-534,-15
16.583_1L:-55.56,-44.28,75.91_122,-260,-257_-458,4,342_606,-534,-15
16.600_1L:-51.89,-39.50,77.95_102,-260,-257_-458,236,463_606,-534,-15
16.640_1L:-52.43,-35.76,82.54_-18,-260,-103_-458,-503,166_606,-534,-15
16.645_1L:-59.89,-32.85,85.87_-20,-208,309_191,-503,-222_606,-534,-15
16.660_1L:-58.06,-36.12,81.14_96,257,52_-408,-503,249_606,-534,-15
16.698_1L:-50.92,-37.34,77.28_116,160,-257_-153,299,205_265,-693,240
16.707_1L:-47.49,-38.38,75.90_44,93,-84_-178,380,309_265,-693,240
16.724_1L:-49.20,-39.78,75.98_-18,84,120_-30,153,313_265,-693,240
16.756_1L:-49.94,-41.21,75.01_-33,90,159_-141,-45,209_265,-693,240
16.759_1L:-47.49,-38.91,72.79_-54,123,89_-141,-201,194_265,-693,240
16.814_1L:-47.08,-37.48,72.21_-14,115,31_-23,-186,238_265,-693,240
16.817_1L:-46.36,-35.75,70.69_40,97,66_-72,-117,237_479,-650,91
16.821_1L:-45.30,-32.90,67.85_8,100,99_-244,-165,149_479,-650,91
16.873_1L:-47.03,-32.77,67.15_-53,126,116_-99,-197,79_479,-650,91
16.876_1L:-50.57,-31.01,67.07_-32,129,118_44,-172,40_479,-650,91
16.885_1L:-53.19,-32.35,66.27_1,124,132_91,-192,-22_479,-650,91
16.901_1L:-57.77,-33.50,67.18_2,72,117_173,-180,6_479,-650,91
16.932_1L:-62.39,-35.08,69.87_-43,-4,81_280,-133,-61_629,-525,-133
16.949_1L:-67.38,-37.84,73.15_-100,-11,75_444,-69,-129_629,-525,-133
16.992_1L:-69.48,-38.90,74.34_-81,30,56_565,-80,-66_629,-525,-133
16.996_1L:-69.77,-40.04,73.93_-19,57,10_565,-74,-28_629,-525,-133
17.012_1L:-70.25,-40.42,73.45_-1,22,25_551,76,-186_629,-525,-133
17.049_1L:-72.76,-39.78,74.02_-23,-45,98_565,-38,-113_629,-525,-133
17.059_1L:-74.64,-38.28,73.85_16,-76,84_565,-106,49_577,-476,-267
17.076_1L:-72.57,-36.95,71.76_92,-40,-51_543,-227,48_577,-476,-267
17.108_1L:-68.74,-35.63,69.81_96,-38,-148_509,-210,-17_577,-476,-267
17.123_1L:-65.95,-34.78,68.73_60,-25,-126_338,-196,-25_577,-476,-267
17.167_1L:-65.45,-34.53,69.32_-19,-22,-51_163,-136,-65_577,-476,-267
17.169_1L:-69.92,-36.20,72.42_-72,-12,44_211,-124,-75_577,-476,-267
17.186_1L:-75.57,-39.30,75.86_-67,10,67_250,-203,-60_582,-535,-120
17.228_1L:-77.72,-40.75,76.92_-28,32,19_231,-180,-22_582,-535,-120
17.230_1L:-78.83,-42.37,77.49_-9,34,-15_209,-122,-23_582,-535,-120
17.248_1L:-80.32,-44.39,78.22_-5,19,-5_229,-97,-12_582,-535,-120
17.287_1L:-81.70,-46.93,78.62_-1,11,14_275,-118,17_582,-535,-120
17.289_1L:-81.85,-48.25,78.09_10,1,11_297,-129,24_582,-535,-120
17.298_1L:-81.83,-48.78,77.19_23,-16,18_326,-95,-1_581,-503,-215
17.347_1L:-82.07,-49.07,76.53_36,-27,32_354,-129,-7_581,-503,-215
17.350_1L:-81.09,-48.72,75.43_47,-10,-8_432,-175,14_581,-503,-215
17.361_1L:-78.97,-48.91,74.09_53,20,-61_469,-159,10_581,-503,-215
17.406_1L:-76.77,-49.12,72.93_45,21,-67_456,-112,-34_581,-503,-215
