0.000_1L:5.36,5.29,50.ñ
Offsets:257,263,259,0,-2,-60
P:roll,pitch,yaw;gyrox,gyroy,gyroz;accelx,accely,accelz;magx,magy,magz
5.747_1L:-0.02,-0.00,-0.02_6,-3,-1_0,1,247_0,0,0
5.776_1L:-0.01,-0.00,-0.04_6,-3,-1_0,0,248_0,0,0
5.792_1L:-0.03,-0.02,-0.05_5,-3,-1_0,-1,247_0,0,0
5.808_1L:-0.07,-0.02,-0.05_6,-4,-1_1,-4,250_0,0,0
5.839_1L:-0.17,-0.04,-0.05_6,-4,-1_1,-1,249_0,0,0
5.854_1L:-0.20,-0.06,-0.07_6,-3,-1_0,2,250_146,-200,743
5.886_1L:-0.15,-0.03,1.02_7,-3,-1_1,0,251_146,-200,743
5.902_1L:-0.15,-0.04,2.15_7,-3,-1_0,-2,249_146,-200,743
5.920_1L:-0.18,-0.03,3.21_6,-3,-2_0,0,246_146,-200,743
5.937_1L:-0.17,-0.03,4.30_6,-3,-2_0,1,247_146,-200,743
5.965_1L:-0.14,-0.03,5.32_6,-3,-1_0,-3,249_146,-200,743
5.983_1L:-0.22,-0.02,6.38_6,-3,-1_0,1,247_143,-197,746
6.001_1L:-0.19,-0.00,7.38_7,-3,-1_1,0,248_143,-197,746
6.017_1L:-0.19,-0.01,8.42_7,-4,-1_0,-3,249_143,-197,746
6.046_1L:-0.26,-0.00,9.40_6,-4,-1_0,1,248_143,-197,746
6.064_1L:-0.21,-0.01,10.40_6,-3,-2_0,0,248_143,-197,746
6.081_1L:-0.21,-0.01,11.32_6,-3,-1_1,2,249_143,-197,746
6.109_1L:-0.16,-0.01,12.23_7,-3,-1_1,-3,249_145,-201,746
6.128_1L:-0.23,-0.01,13.17_7,-3,-1_1,-1,249_145,-201,746
6.145_1L:-0.23,-0.03,14.05_6,-3,-2_0,-4,248_145,-201,746
6.161_1L:-0.33,-0.05,14.96_5,-3,-1_0,1,245_145,-201,746
6.190_1L:-0.29,-0.04,15.82_6,-4,-1_1,2,247_145,-201,746
6.207_1L:-0.23,-0.06,16.71_6,-4,-1_0,-3,248_145,-201,746
6.223_1L:-0.28,-0.06,17.52_6,-3,-2_0,1,247_143,-201,747
6.253_1L:-0.24,-0.05,18.37_6,-3,-1_0,1,248_143,-201,747
6.270_1L:-0.22,-0.07,19.16_5,-3,-1_0,0,248_143,-201,747
6.287_1L:-0.21,-0.08,19.97_5,-3,-1_1,1,248_143,-201,747
6.302_1L:-0.21,-0.11,20.73_5,-3,0_1,0,249_143,-201,747
6.333_1L:-0.22,-0.14,21.53_5,-4,0_6,0,251_143,-201,747
6.350_1L:-0.33,-0.24,22.31_7,-6,5_5,7,253_146,-200,744
6.366_1L:-0.37,-0.31,23.14_7,-8,10_13,-2,252_146,-200,744
6.382_1L:-0.67,-0.40,24.04_15,-15,14_45,-10,276_146,-200,744
6.413_1L:-1.62,-0.72,25.26_28,-30,40_90,3,356_146,-200,744
6.430_1L:-4.16,-1.17,26.47_-18,-33,136_24,59,445_146,-200,744
6.446_1L:-9.14,-4.06,27.71_-150,-16,253_-148,-510,571_146,-200,744
6.477_1L:-13.77,-8.80,28.24_-248,52,250_-53,-510,571_165,-341,707
6.494_1L:-16.51,-14.78,27.96_-254,123,139_-24,-510,511_165,-341,707
6.525_1L:-18.38,-20.41,26.67_-254,189,137_-73,-462,396_165,-341,707
6.540_1L:-20.23,-26.60,24.82_-255,220,154_-68,-304,321_165,-341,707
6.557_1L:-22.25,-32.43,23.48_-254,202,168_-81,-159,279_165,-341,707
6.591_1L:-24.99,-36.20,22.21_-224,198,189_-107,-18,230_165,-341,707
6.604_1L:-24.95,-36.40,19.10_-186,209,197_-151,83,215_719,-383,74
6.623_1L:-22.43,-37.40,13.41_-183,210,178_-207,109,201_719,-383,74
6.651_1L:-20.09,-38.74,9.41_-171,196,110_-252,286,117_719,-383,74
6.668_1L:-20.32,-42.94,7.13_-162,171,107_-179,429,-40_719,-383,74
6.685_1L:-20.02,-46.16,5.37_-130,137,69_-14,513,-186_719,-383,74
6.704_1L:-19.99,-48.36,4.47_-85,81,50_96,512,-230_719,-383,74
6.730_1L:-20.31,-49.15,4.62_-31,22,29_133,411,-231_666,121,-365
6.748_1L:-20.82,-49.24,4.78_-1,-9,14_170,188,-165_666,121,-365
6.766_1L:-18.37,-52.75,2.66_9,-1,6_241,53,-89_666,121,-365
6.794_1L:-17.27,-57.23,1.45_15,8,6_271,127,-48_666,121,-365
6.812_1L:-14.50,-59.86,-1.06_18,-6,6_263,196,-29_666,121,-365
6.828_1L:-12.16,-61.15,-3.07_16,-22,7_271,141,-32_666,121,-365
6.846_1L:-9.20,-63.31,-5.59_9,-21,4_260,12,-55_647,167,-377
6.876_1L:-9.21,-66.48,-5.66_11,-7,3_286,21,-94_647,167,-377
6.893_1L:-8.65,-69.06,-6.42_17,4,7_296,83,-53_647,167,-377
6.910_1L:-6.04,-70.70,-9.10_17,0,9_266,107,-24_647,167,-377
6.926_1L:-0.31,-72.55,-14.46_9,-5,-5_259,90,-30_647,167,-377
6.954_1L:5.59,-74.37,-19.93_7,-7,-8_247,88,-60_647,167,-377
6.973_1L:13.65,-76.57,-27.70_6,-4,1_251,59,-74_654,163,-366
7.002_1L:20.55,-78.56,-34.47_14,-6,3_245,79,-85_654,163,-366
7.018_1L:31.38,-80.16,-44.86_20,-12,-9_242,98,-80_654,163,-366
7.037_1L:42.99,-80.88,-55.81_30,-24,-19_254,152,-77_654,163,-366
7.055_1L:51.76,-80.73,-63.59_35,-36,-34_248,192,-70_654,163,-366
7.082_1L:56.85,-80.40,-67.18_39,-51,-63_233,263,-78_654,163,-366
7.099_1L:51.45,-80.65,-59.58_62,-81,-97_227,317,-100_681,112,-335
7.119_1L:34.93,-80.53,-40.12_116,-118,-134_131,373,-146_681,112,-335
7.147_1L:16.79,-78.89,-18.54_165,-153,-166_50,378,-147_681,112,-335
7.164_1L:4.76,-75.98,-2.59_193,-169,-203_-44,300,-124_681,112,-335
7.180_1L:6.63,-72.99,0.72_217,-176,-243_-71,250,-65_681,112,-335
7.196_1L:14.99,-69.46,-2.14_239,-185,-247_-116,220,-12_681,112,-335
7.226_1L:21.68,-64.33,-2.93_232,-191,-234_-114,200,70_738,-315,64
7.246_1L:25.03,-57.78,0.49_217,-188,-204_-176,143,186_738,-315,64
7.263_1L:23.30,-50.81,7.99_237,-194,-171_-199,-22,352_738,-315,64
7.291_1L:20.62,-48.58,14.72_200,-167,-108_-277,-74,353_738,-315,64
7.309_1L:18.93,-46.64,19.89_155,-128,-88_-215,-184,427_738,-315,64
7.326_1L:17.96,-44.24,24.58_182,-122,-109_-120,-252,532_738,-315,64
7.357_1L:17.16,-41.29,29.64_206,-133,-118_-254,-239,571_352,-474,617
7.372_1L:16.51,-39.71,33.95_107,-93,-63_-197,-313,571_352,-474,617
7.402_1L:15.76,-39.67,35.98_20,-46,3_-26,-248,494_352,-474,617
7.415_1L:14.78,-39.49,37.36_21,-23,36_102,-211,369_352,-474,617
7.433_1L:14.78,-39.00,38.89_38,-23,-20_52,-258,343_352,-474,617
7.450_1L:15.01,-38.52,40.40_39,-25,-34_36,-100,293_352,-474,617
7.479_1L:12.38,-36.57,43.11_27,-13,-2_-11,-76,276_109,-400,713
7.498_1L:9.93,-33.70,45.72_7,-1,-11_1,-146,319_109,-400,713
7.514_1L:10.01,-33.19,46.95_-4,11,-43_31,-44,269_109,-400,713
7.542_1L:8.84,-31.08,48.76_5,6,-31_15,-29,243_109,-400,713
7.559_1L:7.98,-28.56,50.52_9,2,-39_7,-36,230_109,-400,713
7.575_1L:7.66,-26.30,52.25_12,2,-61_13,-19,236_109,-400,713
7.592_1L:7.47,-24.54,53.62_-3,4,-47_-4,28,287_112,-319,740
7.624_1L:7.74,-22.71,54.76_-3,-3,-20_14,-2,254_112,-319,740
7.641_1L:7.39,-21.04,55.96_-4,4,-22_-10,-1,233_112,-319,740
7.658_1L:7.09,-19.28,57.11_-6,5,-16_1,22,249_112,-319,740
7.674_1L:6.93,-17.60,58.15_-4,0,0_22,17,258_112,-319,740
7.702_1L:6.58,-16.39,59.26_3,1,3_27,-13,263_112,-319,740
7.721_1L:5.79,-15.35,60.42_9,4,-3_20,-31,255_139,-265,750
7.750_1L:4.58,-14.25,61.50_7,2,-3_20,-17,247_139,-265,750
7.766_1L:3.79,-13.30,62.42_5,1,-3_21,-16,248_139,-265,750
7.784_1L:3.01,-12.44,63.41_5,-3,-1_22,-11,253_139,-265,750
7.802_1L:2.41,-11.63,64.35_10,-6,2_19,-20,256_139,-265,750
7.818_1L:1.70,-10.73,65.31_14,-5,0_6,0,240_139,-265,750
7.847_1L:1.53,-9.81,66.07_10,-3,0_9,-4,246_134,-267,753
7.864_1L:1.22,-8.93,66.67_10,-3,2_3,-12,245_134,-267,753
7.880_1L:0.71,-8.07,67.29_9,-6,5_0,-25,244_134,-267,753
7.898_1L:0.06,-7.21,67.95_8,-5,-2_9,-33,248_134,-267,753
7.927_1L:-0.63,-6.67,68.54_7,-4,-5_7,-8,243_134,-267,753
7.945_1L:-0.72,-6.16,69.08_6,-4,-3_6,-2,244_134,-267,753
7.962_1L:-0.69,-5.70,69.54_6,-3,-2_6,-15,249_129,-270,756
7.992_1L:-0.89,-5.22,69.75_7,-2,-6_13,-22,252_129,-270,756
8.009_1L:-1.20,-4.93,69.95_9,-2,-6_12,-11,252_129,-270,756
8.026_1L:-1.27,-4.65,70.13_8,-2,-5_1,-11,242_129,-270,756
8.042_1L:-1.31,-4.25,70.28_5,-1,-6_6,-8,244_129,-270,756
8.071_1L:-1.28,-4.02,70.42_3,-1,-6_13,-12,250_129,-270,756
8.089_1L:-1.35,-3.90,70.58_6,-1,-6_17,-10,254_133,-257,751
8.118_1L:-1.40,-3.82,70.55_9,-3,-4_12,2,246_133,-257,751
8.135_1L:-1.24,-3.70,70.51_6,-3,0_6,-1,243_133,-257,751
8.152_1L:-1.16,-3.48,70.46_6,-2,-1_13,-23,253_133,-257,751
8.168_1L:-1.51,-3.35,70.46_9,-3,-5_13,-15,253_133,-257,751
8.184_1L:-1.63,-3.20,70.46_11,-4,-5_14,-4,251_133,-257,751
8.214_1L:-1.60,-3.05,70.44_13,-4,0_17,-7,254_130,-255,762
8.234_1L:-1.87,-2.83,70.40_21,-5,13_28,-13,276_130,-255,762
8.251_1L:-2.91,-2.81,70.35_20,-5,48_26,-25,317_130,-255,762
8.278_1L:-4.73,-3.56,70.07_-29,11,93_-63,-167,520_130,-255,762
8.296_1L:-7.75,-5.73,69.89_-105,15,156_-44,-216,525_130,-255,762
8.312_1L:-12.06,-8.58,69.82_-146,24,234_7,-334,514_130,-255,762
8.328_1L:-16.88,-12.06,69.39_-162,59,254_-10,-498,527_305,-564,583
8.361_1L:-20.70,-16.46,67.76_-174,131,211_-35,-460,481_305,-564,583
8.392_1L:-24.16,-21.47,65.26_-186,200,227_-71,-396,446_305,-564,583
8.405_1L:-27.35,-26.68,62.88_-196,219,233_-69,-316,395_305,-564,583
8.422_1L:-31.03,-32.06,60.73_-188,211,254_-49,-132,312_305,-564,583
8.452_1L:-34.43,-35.95,58.82_-182,206,262_-74,-111,304_305,-564,583
8.466_1L:-37.04,-39.23,56.55_-166,209,240_-76,-42,273_712,-377,-126
8.497_1L:-36.10,-40.26,51.83_-134,195,168_-157,151,160_712,-377,-126
8.511_1L:-31.36,-41.27,45.69_-121,189,121_-193,206,91_712,-377,-126
8.526_1L:-27.58,-42.82,40.55_-113,166,103_-133,309,-36_712,-377,-126
8.557_1L:-24.92,-45.51,36.12_-68,126,82_-3,345,-155_712,-377,-126
8.571_1L:-24.34,-47.01,34.01_-37,100,51_63,362,-201_712,-377,-126
8.589_1L:-23.57,-48.16,32.49_-28,68,19_195,443,-225_674,62,-376
8.619_1L:-23.69,-48.35,31.43_4,17,28_262,349,-163_674,62,-376
8.635_1L:-24.17,-48.19,30.65_18,3,38_247,67,-58_674,62,-376
8.652_1L:-22.41,-53.03,28.29_1,31,17_231,-15,-44_674,62,-376
8.668_1L:-22.85,-57.26,27.74_-12,37,12_274,164,-63_674,62,-376
8.699_1L:-20.41,-59.61,25.00_0,15,14_251,162,-67_674,62,-376
8.715_1L:-17.22,-62.29,21.68_15,-10,17_261,98,-78_657,136,-374
8.732_1L:-14.40,-65.64,18.76_14,-8,5_230,52,-70_657,136,-374
8.763_1L:-11.56,-69.82,15.83_-3,7,0_232,42,-50_657,136,-374
8.779_1L:-8.94,-72.91,13.18_-5,1,-1_273,101,-72_657,136,-374
8.796_1L:-4.34,-74.99,8.63_13,-10,1_271,44,-68_657,136,-374
8.812_1L:-1.29,-77.06,5.68_17,-6,-5_239,58,-61_657,136,-374
8.843_1L:6.13,-79.54,-1.70_9,-4,2_250,83,-61_660,141,-370
8.860_1L:16.93,-81.17,-12.53_7,-7,6_251,45,-60_660,141,-370
8.876_1L:27.09,-82.74,-22.66_10,-6,2_247,29,-60_660,141,-370
8.895_1L:37.09,-84.04,-32.70_15,-8,6_249,73,-53_660,141,-370
8.923_1L:53.33,-84.20,-48.91_15,-11,5_239,57,-44_660,141,-370
8.940_1L:68.19,-84.09,-63.56_13,-10,-3_248,30,-33_660,141,-370
8.956_1L:76.07,-84.26,-71.19_14,-10,-6_255,26,-27_673,133,-358
8.987_1L:82.74,-84.51,-77.86_12,-14,0_266,19,-26_673,133,-358
9.004_1L:88.27,-84.78,-83.55_7,-13,9_254,11,-39_673,133,-358
9.020_1L:99.19,-84.93,-94.49_2,-4,2_256,15,-58_673,133,-358
9.051_1L:111.05,-84.71,-106.24_7,-2,-3_265,42,-61_673,133,-358
9.067_1L:117.83,-83.99,-112.86_11,-6,-4_258,52,-51_673,133,-358
9.084_1L:120.85,-83.32,-115.77_13,-13,-2_262,66,-48_676,121,-352
9.116_1L:121.77,-82.49,-116.53_14,-14,-10_257,66,-43_676,121,-352
9.134_1L:121.96,-81.82,-116.47_14,-14,-16_255,84,-46_676,121,-352
9.151_1L:121.70,-80.91,-115.84_13,-17,-23_249,121,-63_676,121,-352
9.182_1L:121.43,-79.81,-115.03_19,-28,-34_244,170,-88_676,121,-352
9.196_1L:121.06,-79.01,-113.68_37,-46,-55_233,213,-105_676,121,-352
9.213_1L:119.83,-79.22,-110.93_69,-70,-86_214,255,-116_710,19,-310
9.243_1L:116.32,-81.01,-104.84_107,-103,-118_190,293,-119_710,19,-310
9.261_1L:107.15,-84.25,-92.75_137,-139,-140_161,302,-109_710,19,-310
9.276_1L:76.93,-86.59,-59.26_157,-160,-167_75,190,-44_710,19,-310
9.306_1L:51.18,-85.43,-29.53_172,-163,-213_52,155,-8_710,19,-310
9.322_1L:17.96,-83.49,8.45_190,-175,-242_40,110,9_710,19,-310
9.339_1L:-2.90,-80.04,34.00_210,-188,-251_-3,102,32_694,-401,149
9.369_1L:-10.66,-75.03,47.18_220,-178,-233_-91,79,100_694,-401,149
9.386_1L:-10.51,-70.13,51.45_218,-156,-210_-169,-59,286_694,-401,149
9.403_1L:-10.79,-63.77,55.96_200,-143,-187_-217,-103,387_694,-401,149
9.432_1L:-11.09,-61.05,59.20_138,-113,-126_-158,-74,375_694,-401,149
9.447_1L:-11.53,-58.47,61.87_125,-98,-85_-23,-137,393_694,-401,149
9.464_1L:-11.46,-55.69,63.93_144,-93,-86_-43,-203,413_349,-451,639
9.495_1L:-10.35,-53.08,66.03_113,-61,-88_-49,-151,402_349,-451,639
9.513_1L:-9.76,-51.87,67.53_68,-43,-62_19,-109,380_349,-451,639
9.530_1L:-9.45,-50.67,69.08_64,-41,-44_13,-124,360_349,-451,639
9.545_1L:-8.95,-49.45,70.42_70,-37,-49_15,-123,361_349,-451,639
9.575_1L:-8.29,-48.12,71.73_73,-33,-50_-39,-104,349_349,-451,639
9.592_1L:-7.83,-47.15,72.76_42,-17,-34_-43,-60,336_161,-305,760
9.608_1L:-7.75,-45.25,73.85_18,-8,-7_-17,-51,322_161,-305,760
9.639_1L:-7.77,-43.44,75.02_-7,-13,-9_-1,-49,295_161,-305,760
9.655_1L:-7.15,-41.96,75.72_-65,19,-25_-42,-165,485_161,-305,760
9.672_1L:-6.51,-42.10,76.62_0,-2,-32_197,-85,342_161,-305,760
9.688_1L:-6.30,-42.10,77.61_7,-5,-10_37,82,229_161,-305,760
9.719_1L:-3.33,-39.36,76.57_9,-9,9_17,-20,248_198,-253,752
9.736_1L:-3.52,-35.91,77.63_7,-4,7_9,-57,252_198,-253,752
9.753_1L:-4.32,-32.92,79.12_6,-1,-6_13,-19,238_198,-253,752
9.782_1L:-4.18,-30.31,80.23_4,-5,-5_11,17,233_198,-253,752
9.799_1L:-3.44,-28.23,80.94_1,-6,4_28,-5,248_198,-253,752
9.816_1L:-3.20,-26.21,81.89_2,-3,4_48,-29,257_198,-253,752
9.832_1L:-3.43,-24.69,83.12_7,-1,-2_34,-22,245_199,-255,752
9.864_1L:-3.57,-23.00,83.95_8,-3,0_26,1,248_199,-255,752
9.880_1L:-3.21,-21.26,84.61_6,-4,5_22,-6,242_199,-255,752
9.896_1L:-3.09,-19.78,85.31_6,-3,5_25,-24,245_199,-255,752
9.912_1L:-3.33,-18.33,86.20_6,-3,0_24,-24,245_199,-255,752
9.943_1L:-3.51,-17.07,87.04_6,-4,-2_21,-18,248_199,-255,752
9.960_1L:-3.52,-15.78,87.87_7,-4,-2_20,-16,242_194,-264,750
9.991_1L:-3.51,-14.74,88.09_6,-4,-2_31,-5,248_194,-264,750
10.007_1L:-3.33,-13.92,88.28_7,-6,3_37,3,253_194,-264,750
10.023_1L:-3.24,-13.25,88.50_12,-10,15_33,-4,266_194,-264,750
10.040_1L:-4.12,-12.38,88.92_19,-18,54_32,5,270_194,-264,750
10.056_1L:-5.97,-11.83,89.17_8,-13,124_10,-67,344_194,-264,750
10.087_1L:-9.96,-12.20,89.55_-28,-8,198_-33,-122,392_190,-277,746
10.104_1L:-15.53,-13.85,89.52_-73,2,274_-18,-205,369_190,-277,746
10.120_1L:-21.48,-15.89,89.25_-90,28,311_40,-313,332_190,-277,746
10.152_1L:-26.47,-18.15,88.60_-93,63,281_27,-468,319_190,-277,746
10.170_1L:-30.52,-21.30,87.13_-104,123,236_30,-505,303_190,-277,746
10.200_1L:-33.76,-24.99,85.52_-123,159,212_5,-466,280_190,-277,746
10.214_1L:-37.45,-29.15,84.04_-131,166,229_55,-316,202_341,-737,362
10.245_1L:-41.97,-33.43,82.67_-116,170,267_95,-294,144_341,-737,362
10.258_1L:-47.22,-36.66,81.73_-86,169,276_103,-274,103_341,-737,362
10.276_1L:-52.79,-39.20,81.36_-68,169,268_60,-222,101_341,-737,362
10.292_1L:-58.84,-40.10,81.06_-46,159,278_71,-175,86_341,-737,362
10.321_1L:-63.59,-41.94,80.06_-24,152,290_31,-157,71_341,-737,362
10.337_1L:-67.45,-44.02,78.52_0,155,260_52,-170,66_636,-450,-284
10.354_1L:-69.67,-45.89,75.42_37,165,204_39,-151,65_636,-450,-284
10.385_1L:-70.69,-48.03,71.96_53,170,177_15,-60,43_636,-450,-284
10.401_1L:-70.69,-51.04,68.55_53,183,134_55,28,74_636,-450,-284
10.417_1L:-69.37,-53.75,64.66_64,165,85_72,177,48_636,-450,-284
10.434_1L:-65.37,-58.00,58.45_65,145,107_76,259,15_636,-450,-284
10.465_1L:-58.96,-64.50,49.80_33,131,130_64,267,41_679,168,-339
10.482_1L:-47.52,-69.89,37.07_8,98,74_178,351,65_679,168,-339
10.498_1L:-44.77,-70.56,33.35_26,60,31_283,363,84_679,168,-339
10.529_1L:-42.76,-70.65,30.58_34,31,27_236,322,94_679,168,-339
10.546_1L:-42.73,-70.88,30.32_-2,3,7_209,214,38_679,168,-339
10.563_1L:-34.82,-73.63,22.86_-23,-4,-4_225,145,-43_679,168,-339
10.578_1L:-26.46,-77.03,14.78_-3,4,-4_277,96,-72_604,428,-220
10.609_1L:-19.46,-78.91,7.86_32,11,-14_253,136,-45_604,428,-220
10.626_1L:-6.47,-80.11,-4.73_43,4,-23_220,154,-26_604,428,-220
10.642_1L:12.85,-80.70,-23.59_31,-9,-16_233,190,4_604,428,-220
10.658_1L:25.65,-80.24,-36.40_14,-20,12_222,166,12_604,428,-220
10.689_1L:38.22,-79.45,-49.04_-1,-29,19_241,86,-3_604,428,-220
10.706_1L:45.38,-79.50,-56.01_0,-25,4_246,65,-30_612,427,-214
10.736_1L:54.48,-79.86,-65.00_8,-11,-6_232,69,-40_612,427,-214
10.754_1L:63.24,-79.93,-73.70_10,-12,-1_229,81,-39_612,427,-214
10.772_1L:71.82,-79.47,-82.24_11,-11,2_241,68,-31_612,427,-214
10.786_1L:77.13,-79.12,-87.36_14,-7,-6_258,75,-19_612,427,-214
10.817_1L:80.24,-78.66,-90.28_12,-7,-7_257,121,-8_612,427,-214
10.833_1L:82.58,-77.67,-92.62_2,-13,2_244,122,-5_630,402,-212
10.850_1L:85.27,-76.41,-95.57_-6,-14,3_253,66,-21_630,402,-212
10.880_1L:88.37,-76.45,-98.75_-5,-15,-4_257,62,-29_630,402,-212
10.897_1L:91.46,-76.62,-101.86_2,-18,-5_252,60,-34_630,402,-212
10.914_1L:94.50,-76.60,-104.84_5,-10,-8_248,59,-36_630,402,-212
10.931_1L:97.71,-76.40,-107.86_5,-3,-14_253,73,-30_630,402,-212
10.961_1L:99.47,-75.99,-109.54_5,-3,-9_256,97,-26_634,381,-224
10.978_1L:100.55,-75.23,-110.79_2,-8,-3_256,103,-22_634,381,-224
10.994_1L:101.39,-74.65,-111.67_-1,-14,-10_256,111,-18_634,381,-224
11.025_1L:102.03,-74.07,-112.04_1,-18,-27_259,130,-14_634,381,-224
11.041_1L:102.25,-73.52,-111.66_7,-24,-46_265,161,-7_634,381,-224
11.058_1L:102.14,-73.22,-110.76_13,-41,-56_241,215,9_634,381,-224
11.088_1L:102.00,-72.95,-109.63_12,-58,-71_214,211,25_646,356,-243
11.106_1L:101.96,-72.34,-107.55_6,-74,-118_206,208,25_646,356,-243
11.122_1L:102.87,-72.01,-105.69_7,-92,-174_206,212,1_646,356,-243
11.153_1L:105.07,-72.03,-104.33_19,-111,-206_194,200,-10_646,356,-243
11.169_1L:106.72,-72.05,-101.97_42,-122,-238_184,157,-9_646,356,-243
11.186_1L:107.10,-72.57,-97.30_71,-126,-257_166,90,-4_646,356,-243
11.202_1L:106.71,-74.57,-92.38_103,-117,-257_144,47,-3_715,46,-308
11.236_1L:103.15,-77.31,-83.06_133,-116,-257_140,71,-21_715,46,-308
11.253_1L:94.58,-79.62,-69.50_169,-129,-257_115,118,4_715,46,-308
11.281_1L:76.45,-80.86,-46.16_197,-136,-257_41,126,56_715,46,-308
11.297_1L:52.21,-80.79,-17.46_215,-144,-231_-28,108,117_715,46,-308
11.316_1L:31.95,-78.35,6.07_200,-138,-162_-64,8,194_715,46,-308
11.333_1L:17.73,-73.52,22.92_173,-125,-146_-47,-56,230_701,-396,178
11.361_1L:5.17,-64.65,38.32_186,-135,-114_-10,-84,325_701,-396,178
11.380_1L:0.83,-59.47,44.67_187,-129,-72_-88,-200,408_701,-396,178
11.397_1L:0.07,-57.20,47.50_129,-85,-78_-138,-324,465_701,-396,178
11.425_1L:0.81,-56.32,48.77_51,-40,-84_-67,-293,435_701,-396,178
11.442_1L:1.78,-56.31,49.15_6,-15,-61_63,-194,393_701,-396,178
11.460_1L:2.43,-56.26,49.55_8,-15,-42_129,-146,340_406,-478,591
11.488_1L:3.05,-55.86,50.42_25,-12,-35_118,-100,266_406,-478,591
11.505_1L:1.27,-53.27,53.41_41,-19,-44_101,-68,250_406,-478,591
11.521_1L:-0.67,-49.90,56.48_55,-38,-34_84,-22,254_406,-478,591
11.538_1L:-1.77,-45.92,58.63_63,-47,-6_46,-58,279_406,-478,591
11.568_1L:-3.14,-42.36,60.76_54,-38,-3_35,-96,289_406,-478,591
11.585_1L:-4.39,-39.38,62.77_43,-24,-11_38,-113,289_337,-403,688
11.602_1L:-5.45,-36.71,64.72_40,-18,-17_48,-96,283_337,-403,688
11.632_1L:-6.37,-34.19,66.52_38,-22,-15_43,-73,276_337,-403,688
11.649_1L:-7.00,-31.79,68.03_30,-21,-11_32,-58,260_337,-403,688
11.666_1L:-7.35,-29.17,69.30_22,-12,-11_36,-62,254_337,-403,688
11.682_1L:-7.72,-26.94,70.41_22,-5,-11_39,-46,252_337,-403,688
11.713_1L:-7.88,-24.76,71.40_25,-7,-3_31,-45,253_243,-377,726
11.730_1L:-8.13,-22.70,72.36_25,-13,2_23,-47,252_243,-377,726
11.749_1L:-8.41,-20.69,73.32_18,-10,2_6,-54,256_243,-377,726
11.765_1L:-8.60,-18.93,74.12_4,-1,-5_14,-59,272_243,-377,726
11.794_1L:-8.73,-17.67,74.93_-2,1,-8_50,-41,283_243,-377,726
11.812_1L:-8.66,-17.17,75.68_-1,-4,-1_62,-40,292_243,-377,726
11.829_1L:-8.80,-16.82,76.49_2,-7,10_55,-37,277_220,-352,725
11.859_1L:-8.96,-16.33,76.79_6,-6,14_49,-47,252_220,-352,725
11.876_1L:-9.21,-15.67,77.13_10,-5,5_36,-58,240_220,-352,725
11.890_1L:-9.70,-14.82,77.54_11,-6,3_23,-52,233_220,-352,725
11.906_1L:-10.14,-13.86,77.94_8,-7,8_16,-47,233_220,-352,725
11.937_1L:-10.38,-12.98,78.24_4,-5,7_25,-65,244_220,-352,725
11.953_1L:-10.83,-12.30,78.53_2,1,0_29,-66,256_215,-370,713
11.970_1L:-11.21,-11.85,78.47_0,1,3_31,-62,273_215,-370,713
12.001_1L:-11.83,-11.60,78.42_-7,0,25_15,-71,285_215,-370,713
12.017_1L:-12.77,-11.51,78.26_-23,10,44_24,-120,308_215,-370,713
12.034_1L:-13.93,-12.11,78.03_-41,21,45_43,-151,333_215,-370,713
12.050_1L:-14.97,-13.36,77.76_-56,24,54_51,-145,337_215,-370,713
12.081_1L:-16.85,-14.78,77.72_-70,18,102_61,-124,330_280,-429,680
12.098_1L:-20.79,-16.65,77.61_-85,14,181_82,-126,318_280,-429,680
12.114_1L:-23.37,-19.00,76.98_-109,59,147_67,-351,348_280,-429,680
12.146_1L:-25.32,-21.86,75.96_-115,86,116_67,-363,349_280,-429,680
12.163_1L:-28.32,-24.46,75.03_-104,86,181_69,-290,298_280,-429,680
12.181_1L:-32.63,-27.27,74.15_-102,90,242_28,-330,259_280,-429,680
12.209_1L:-36.83,-30.64,73.54_-132,110,244_56,-312,223_535,-640,301
12.228_1L:-41.70,-34.91,73.02_-145,120,241_111,-230,186_535,-640,301
12.261_1L:-47.13,-37.28,72.91_-111,111,272_131,-163,143_535,-640,301
12.272_1L:-53.11,-40.01,71.92_-74,125,303_98,-141,129_535,-640,301
12.288_1L:-57.20,-42.52,70.53_-68,152,282_56,-184,108_535,-640,301
12.304_1L:-60.88,-43.95,69.62_-59,151,211_62,-198,119_535,-640,301
12.335_1L:-62.92,-44.51,68.10_-34,155,169_82,-86,99_680,-328,-303
12.352_1L:-63.82,-47.80,65.03_-5,169,147_66,-18,79_680,-328,-303
12.368_1L:-64.04,-50.90,62.48_-2,176,107_56,66,45_680,-328,-303
12.398_1L:-63.60,-54.46,60.18_-23,184,63_68,137,12_680,-328,-303
12.415_1L:-61.91,-58.59,57.72_-39,178,24_93,234,-16_680,-328,-303
12.432_1L:-55.17,-66.49,50.67_-31,137,30_135,325,-56_680,-328,-303
12.448_1L:-53.23,-69.00,47.47_-12,84,62_184,326,-84_644,173,-393
12.479_1L:-52.43,-69.96,44.84_6,50,66_202,255,-74_644,173,-393
12.498_1L:-48.24,-72.82,40.04_7,47,22_205,190,-68_644,173,-393
12.515_1L:-39.78,-77.28,31.50_3,39,0_208,202,-81_644,173,-393
12.543_1L:-29.19,-80.49,20.66_4,20,15_217,216,-84_644,173,-393
12.561_1L:-15.43,-82.55,6.53_8,3,23_223,180,-72_644,173,-393
12.578_1L:7.04,-84.03,-16.10_11,-5,17_238,133,-68_586,319,-376
12.607_1L:38.62,-84.50,-47.77_10,-1,9_235,125,-67_586,319,-376
12.624_1L:63.63,-83.67,-72.64_6,3,0_229,118,-65_586,319,-376
12.640_1L:81.01,-82.11,-89.74_4,-2,-3_237,122,-66_586,319,-376
12.656_1L:90.12,-80.61,-98.65_5,-11,3_241,117,-65_586,319,-376
12.687_1L:95.81,-79.28,-104.19_10,-18,9_240,105,-64_586,319,-376
12.703_1L:99.98,-78.14,-108.14_11,-16,6_234,95,-65_591,326,-367
12.734_1L:104.69,-76.78,-112.79_6,-9,-3_231,77,-62_591,326,-367
12.751_1L:108.26,-75.98,-116.32_6,-11,-2_236,77,-65_591,326,-367
12.767_1L:111.24,-75.25,-119.37_7,-12,5_239,85,-67_591,326,-367
12.787_1L:113.33,-74.48,-121.48_8,-12,3_244,59,-58_591,326,-367
12.815_1L:115.51,-74.28,-123.48_9,-9,-7_244,65,-63_591,326,-367
12.832_1L:117.42,-73.84,-125.17_7,-4,-9_246,76,-67_599,316,-362
12.851_1L:118.91,-73.20,-126.80_7,-7,3_255,78,-66_599,316,-362
12.878_1L:119.52,-72.86,-127.70_11,-11,12_260,67,-60_599,316,-362
12.895_1L:120.09,-72.71,-128.37_12,-6,2_257,55,-55_599,316,-362
12.912_1L:120.93,-72.65,-128.98_10,2,-15_254,60,-55_599,316,-362
12.929_1L:121.57,-72.48,-129.42_9,2,-13_252,84,-60_599,316,-362
12.959_1L:121.47,-71.94,-129.45_8,-2,2_245,89,-62_610,302,-359
12.976_1L:121.35,-71.20,-129.60_6,-2,6_243,73,-56_610,302,-359
12.992_1L:121.67,-70.91,-129.97_6,-2,-3_245,82,-59_610,302,-359
13.022_1L:121.91,-70.53,-130.17_7,-4,-9_243,96,-64_610,302,-359
13.039_1L:121.88,-69.91,-130.15_8,-5,-7_241,109,-63_610,302,-359
13.056_1L:121.43,-69.27,-129.74_10,-8,-6_241,124,-57_610,302,-359
13.072_1L:120.60,-68.63,-128.87_12,-14,-14_239,145,-55_608,307,-359
13.104_1L:119.71,-68.01,-127.68_16,-25,-27_233,184,-57_608,307,-359
13.132_1L:118.84,-67.50,-126.31_24,-40,-40_219,217,-61_608,307,-359
13.147_1L:118.26,-67.19,-124.82_36,-54,-64_198,242,-58_608,307,-359
13.164_1L:118.14,-67.00,-122.81_48,-66,-113_193,259,-58_608,307,-359
13.194_1L:119.00,-67.52,-120.83_65,-90,-170_171,276,-49_608,307,-359
13.209_1L:119.50,-68.90,-118.03_94,-133,-188_124,294,-25_677,143,-349
13.239_1L:116.65,-71.31,-111.23_132,-183,-164_96,229,6_677,143,-349
13.254_1L:108.37,-72.05,-100.11_160,-218,-156_88,147,41_677,143,-349
13.271_1L:101.35,-75.69,-89.71_176,-228,-176_83,60,61_677,143,-349
13.287_1L:90.22,-80.25,-74.73_181,-236,-188_69,39,69_677,143,-349
13.318_1L:62.92,-83.47,-44.28_184,-235,-163_30,7,101_677,143,-349
13.334_1L:25.31,-84.05,-3.49_136,-196,-161_-50,-108,168_700,-436,26
13.368_1L:-8.35,-79.88,34.47_84,-160,-209_4,-221,241_700,-436,26
13.381_1L:-21.24,-75.38,50.88_70,-155,-180_48,-154,241_700,-436,26
13.399_1L:-27.31,-69.10,58.84_74,-161,-102_35,-240,266_700,-436,26
13.416_1L:-29.58,-65.80,62.82_84,-143,-90_20,-361,298_700,-436,26
13.443_1L:-28.44,-63.63,64.17_87,-105,-146_-41,-404,295_700,-436,26
13.460_1L:-25.77,-61.86,64.50_78,-71,-172_19,-224,256_433,-643,415
13.477_1L:-24.52,-58.63,66.22_68,-46,-119_33,-171,263_433,-643,415
13.508_1L:-23.60,-54.57,67.75_66,-44,-95_41,-176,279_433,-643,415
13.526_1L:-22.53,-51.40,69.20_71,-51,-99_31,-159,291_433,-643,415
13.543_1L:-21.58,-47.91,70.70_80,-58,-82_21,-113,273_433,-643,415
13.560_1L:-20.90,-43.67,71.79_70,-47,-47_-15,-98,286_433,-643,415
13.588_1L:-19.80,-39.70,72.52_54,-28,-42_-10,-147,312_233,-496,679
13.607_1L:-18.85,-37.70,73.48_43,-13,-48_-5,-122,313_233,-496,679
13.624_1L:-18.21,-35.62,74.47_36,-15,-33_-1,-92,305_233,-496,679
13.652_1L:-17.86,-33.33,75.43_27,-17,-11_1,-81,291_233,-496,679
13.670_1L:-17.61,-30.86,76.44_15,-14,-1_-2,-86,282_233,-496,679
13.685_1L:-17.48,-28.64,77.51_5,-11,-2_5,-78,274_233,-496,679
13.702_1L:-17.07,-26.92,78.51_-21,2,-10_12,-133,304_158,-422,714
13.733_1L:-17.25,-26.26,79.61_-16,7,-3_55,-72,287_158,-422,714
13.751_1L:-16.91,-25.27,80.42_-1,1,0_53,-77,263_158,-422,714
13.767_1L:-16.65,-24.12,81.27_4,0,-6_32,-57,235_158,-422,714
13.796_1L:-16.14,-22.49,82.06_6,-1,-5_23,-52,231_158,-422,714
13.814_1L:-15.74,-20.95,82.89_9,-5,-1_22,-55,251_158,-422,714
13.832_1L:-15.46,-19.27,83.82_9,-8,6_23,-60,253_185,-403,710
13.860_1L:-15.33,-17.83,84.39_10,-7,6_27,-69,246_185,-403,710
13.875_1L:-15.34,-16.51,85.00_12,-4,1_21,-63,240_185,-403,710
13.892_1L:-15.35,-15.20,85.56_13,-5,6_13,-50,244_185,-403,710
13.908_1L:-15.18,-13.91,86.05_9,-5,13_11,-58,256_185,-403,710
13.939_1L:-15.22,-12.77,86.61_5,-4,16_12,-64,256_185,-403,710
13.957_1L:-15.51,-11.94,87.20_-2,-4,22_5,-94,267_176,-429,701
13.975_1L:-16.42,-11.29,87.21_-10,0,30_10,-108,274_176,-429,701
14.003_1L:-17.44,-11.25,87.05_-27,15,37_2,-120,283_176,-429,701
14.020_1L:-18.59,-11.55,86.78_-42,26,43_14,-145,294_176,-429,701
14.038_1L:-20.18,-12.11,86.71_-44,18,68_35,-160,305_176,-429,701
14.055_1L:-22.98,-12.86,86.83_-43,8,132_48,-179,300_176,-429,701
14.083_1L:-26.51,-14.04,86.78_-57,26,184_35,-301,313_275,-573,599
14.100_1L:-29.95,-16.32,86.00_-83,54,168_27,-333,310_275,-573,599
14.119_1L:-33.02,-18.73,85.36_-100,70,173_44,-308,292_275,-573,599
14.147_1L:-37.21,-21.22,84.86_-96,68,222_53,-334,271_275,-573,599
14.165_1L:-41.73,-23.68,84.16_-85,86,256_31,-393,246_275,-573,599
14.182_1L:-45.88,-27.00,82.79_-85,140,243_32,-435,218_275,-573,599
14.199_1L:-49.01,-30.76,81.13_-86,181,212_15,-412,200_533,-702,49
14.229_1L:-52.53,-35.18,79.36_-89,179,207_30,-326,159_533,-702,49
14.246_1L:-56.21,-38.29,78.23_-74,155,225_58,-219,129_533,-702,49
14.264_1L:-60.16,-39.42,76.87_-52,166,227_67,-135,109_533,-702,49
14.291_1L:-62.33,-42.12,74.72_-29,177,201_32,-113,95_533,-702,49
14.308_1L:-63.79,-45.32,72.37_-19,185,161_32,-62,78_533,-702,49
14.324_1L:-64.38,-48.85,70.10_-15,194,118_56,-43,76_701,-199,-324
14.356_1L:-63.47,-52.79,66.68_-7,194,65_62,14,64_701,-199,-324
14.373_1L:-61.84,-56.07,63.50_-5,188,36_62,92,37_701,-199,-324
14.390_1L:-60.15,-59.33,60.27_-13,175,39_80,200,5_701,-199,-324
14.407_1L:-54.89,-65.06,53.86_-25,146,61_98,249,-19_701,-199,-324
14.436_1L:-45.57,-71.59,43.35_-26,105,74_143,246,-24_701,-199,-324
14.454_1L:-32.56,-76.10,29.32_-11,75,66_195,242,-28_638,232,-354
14.482_1L:-14.34,-78.70,10.29_5,58,38_228,289,-67_638,232,-354
14.500_1L:-10.24,-78.74,5.65_10,37,23_216,293,-68_638,232,-354
14.517_1L:-7.74,-78.76,2.71_7,13,20_227,263,-62_638,232,-354
14.535_1L:-3.27,-79.15,-2.11_5,-10,24_241,219,-63_638,232,-354
14.563_1L:4.03,-79.91,-9.75_5,-28,29_248,158,-64_638,232,-354
14.580_1L:14.36,-80.93,-20.28_8,-35,26_244,107,-57_617,318,-328
14.599_1L:30.04,-81.99,-36.14_7,-25,14_238,73,-55_617,318,-328
14.627_1L:45.54,-82.65,-51.60_3,-11,3_234,61,-51_617,318,-328
14.644_1L:62.02,-82.74,-67.80_2,-1,-8_242,53,-47_617,318,-328
14.662_1L:74.19,-82.43,-79.55_5,4,-14_248,64,-45_617,318,-328
14.679_1L:82.93,-81.73,-87.89_8,2,-12_249,71,-46_617,318,-328
14.707_1L:89.58,-80.86,-94.26_9,-2,-3_249,83,-48_622,308,-330
14.727_1L:94.91,-79.73,-99.67_6,-3,3_251,81,-49_622,308,-330
14.743_1L:98.91,-78.73,-103.72_4,-2,2_254,78,-48_622,308,-330
14.771_1L:101.90,-77.92,-106.70_3,-3,-1_254,80,-49_622,308,-330
14.789_1L:104.51,-77.12,-109.26_3,-5,-2_253,84,-53_622,308,-330
14.806_1L:106.69,-76.37,-111.40_4,-8,-1_250,79,-53_622,308,-330
14.823_1L:108.57,-75.71,-113.23_7,-8,-1_249,70,-51_621,306,-329
14.853_1L:110.21,-75.20,-114.86_9,-5,-4_248,64,-47_621,306,-329
14.870_1L:111.56,-74.86,-116.16_8,-4,-6_246,64,-44_621,306,-329
14.887_1L:112.53,-74.57,-117.13_7,-5,-4_245,67,-46_621,306,-329
14.915_1L:113.46,-74.24,-118.10_7,-6,-2_250,66,-47_621,306,-329
14.932_1L:114.23,-74.00,-118.89_8,-6,-2_252,67,-50_621,306,-329
14.951_1L:115.08,-73.68,-119.74_7,-3,-3_254,70,-49_626,299,-330
14.979_1L:115.67,-73.33,-120.34_7,-2,-5_255,71,-48_626,299,-330
14.996_1L:116.10,-73.04,-120.77_7,-3,-5_255,78,-51_626,299,-330
15.015_1L:116.36,-72.68,-121.12_7,-4,-1_255,80,-52_626,299,-330
