0.000_1L:12.50,18.15,µ
Offsets:257,263,259,-31,0,-59
P:roll,pitch,yaw;gyrox,gyroy,gyroz;accelx,accely,accelz;magx,magy,magz
5.747_1L:-0.02,0.00,0.00_6,-4,-1_-3,-3,248_0,0,0
5.776_1L:-0.09,0.05,-0.02_5,-3,-2_-3,-3,248_0,0,0
5.793_1L:-0.15,0.10,-0.02_5,-4,-2_-3,0,249_0,0,0
5.809_1L:-0.17,0.16,-0.02_6,-4,0_-2,0,251_0,0,0
5.839_1L:-0.19,0.19,-0.02_6,-4,0_-2,-4,247_0,0,0
5.857_1L:-0.29,0.22,-0.04_6,-3,-1_-2,-5,250_34,-214,747
5.887_1L:-0.37,0.24,1.30_6,-3,-2_-3,-4,250_34,-214,747
5.903_1L:-0.43,0.29,2.72_6,-4,-2_-2,-1,249_34,-214,747
5.921_1L:-0.43,0.31,4.06_6,-4,-1_-2,0,247_34,-214,747
5.935_1L:-0.42,0.32,5.44_6,-3,0_-4,-2,247_34,-214,747
5.966_1L:-0.42,0.38,6.75_6,-3,-2_-3,-3,250_34,-214,747
5.982_1L:-0.45,0.42,8.13_6,-4,-2_-2,-1,251_35,-221,745
6.001_1L:-0.45,0.44,9.44_7,-4,-1_-2,0,249_35,-221,745
6.018_1L:-0.42,0.46,10.79_7,-4,-1_-2,-1,249_35,-221,745
6.047_1L:-0.40,0.46,12.06_6,-3,-2_-2,-5,249_35,-221,745
6.064_1L:-0.48,0.46,13.37_6,-3,-2_-4,-1,248_35,-221,745
6.082_1L:-0.49,0.51,14.61_6,-3,0_-2,0,250_35,-221,745
6.097_1L:-0.50,0.52,15.83_7,-3,1_0,-7,251_35,-217,748
6.129_1L:-0.61,0.49,17.10_7,-3,-2_0,-10,249_35,-217,748
6.144_1L:-0.76,0.45,18.29_6,-3,-3_-1,-1,248_35,-217,748
6.160_1L:-0.71,0.42,19.53_6,-3,-2_-5,1,247_35,-217,748
6.190_1L:-0.65,0.49,20.69_6,-3,0_-4,-1,249_35,-217,748
6.208_1L:-0.65,0.54,21.92_6,-4,0_-2,-6,249_35,-217,748
6.225_1L:-0.72,0.51,23.07_5,-4,-2_-1,-5,250_34,-212,746
6.255_1L:-0.80,0.47,24.26_5,-4,0_-2,0,246_34,-212,746
6.271_1L:-0.82,0.45,25.40_5,-5,3_-3,2,249_34,-212,746
6.289_1L:-0.78,0.46,26.58_5,-5,3_-3,-4,251_34,-212,746
6.305_1L:-0.87,0.46,27.70_5,-6,2_2,-8,255_34,-212,746
6.334_1L:-0.76,0.18,28.90_-4,-8,-13_-6,-51,256_34,-212,746
6.351_1L:-1.48,-0.03,30.19_-12,-17,-16_11,-12,282_39,-220,745
6.367_1L:-1.83,-0.53,31.57_-11,-19,11_69,-120,369_39,-220,745
6.398_1L:-2.45,-1.38,32.60_-41,-3,31_36,-213,458_39,-220,745
6.415_1L:-4.09,-3.60,33.35_-109,18,82_36,-196,479_39,-220,745
6.433_1L:-7.36,-6.93,34.04_-175,30,175_96,-264,478_39,-220,745
6.450_1L:-10.86,-10.98,34.53_-199,56,182_130,-360,466_39,-220,745
6.479_1L:-13.27,-15.33,34.52_-216,95,140_101,-348,440_265,-369,663
6.498_1L:-15.49,-21.37,33.36_-250,148,134_0,-321,405_265,-369,663
6.526_1L:-17.78,-26.82,32.38_-255,156,162_33,-291,365_265,-369,663
6.543_1L:-20.76,-32.71,31.24_-255,170,203_70,-240,324_265,-369,663
6.561_1L:-23.50,-38.34,29.88_-245,188,215_40,-156,285_265,-369,663
6.591_1L:-25.44,-42.45,28.27_-218,199,166_-36,-100,282_265,-369,663
6.605_1L:-25.24,-44.66,26.02_-208,203,110_-45,44,218_764,-283,3
6.623_1L:-21.81,-46.52,20.33_-191,187,129_-18,136,151_764,-283,3
6.651_1L:-18.49,-49.02,14.45_-148,172,163_-23,108,144_764,-283,3
6.668_1L:-14.65,-51.40,8.75_-131,174,93_-29,77,126_764,-283,3
6.686_1L:-11.46,-54.16,4.41_-139,162,44_0,278,-6_764,-283,3
6.703_1L:-1.13,-57.37,-6.34_-132,138,86_74,387,-126_764,-283,3
6.719_1L:0.50,-59.18,-9.56_-88,95,76_155,366,-165_635,233,-381
6.750_1L:1.06,-59.78,-10.91_-25,26,23_200,330,-168_635,233,-381
6.767_1L:0.08,-59.68,-10.02_11,-30,5_192,167,-75_635,233,-381
6.783_1L:6.24,-62.50,-15.07_19,-37,-11_216,96,-36_635,233,-381
6.812_1L:10.52,-64.78,-18.83_28,-23,2_234,33,1_635,233,-381
6.830_1L:11.43,-66.32,-20.00_28,-8,23_250,9,8_635,233,-381
6.847_1L:12.06,-68.14,-21.04_21,11,20_241,59,-21_601,286,-392
6.876_1L:17.26,-70.19,-26.35_17,13,10_246,131,-42_601,286,-392
6.894_1L:24.37,-71.32,-33.09_19,-8,-1_268,167,-49_601,286,-392
6.911_1L:28.47,-71.84,-36.93_17,-23,3_275,169,-50_601,286,-392
6.939_1L:33.02,-72.40,-41.15_3,-16,-3_271,88,-38_601,286,-392
6.956_1L:39.24,-73.46,-46.74_-4,1,-22_275,43,-28_601,286,-392
6.975_1L:44.42,-74.75,-51.39_-7,9,-20_259,57,-46_606,293,-372
7.003_1L:51.89,-75.86,-58.53_0,6,-12_273,96,-65_606,293,-372
7.019_1L:59.33,-76.11,-65.62_5,4,-10_269,112,-65_606,293,-372
7.036_1L:66.30,-75.94,-72.02_7,3,-21_268,110,-61_606,293,-372
7.052_1L:72.93,-75.64,-77.78_8,0,-33_250,114,-75_606,293,-372
7.083_1L:80.02,-75.16,-84.05_8,-3,-28_234,107,-91_606,293,-372
7.099_1L:88.19,-74.51,-91.36_8,-5,-24_243,92,-82_598,281,-396
7.116_1L:94.42,-73.96,-96.80_15,-3,-29_264,78,-65_598,281,-396
7.147_1L:97.61,-73.77,-98.97_26,0,-44_277,62,-49_598,281,-396
7.163_1L:99.08,-73.99,-99.40_33,-3,-48_288,82,-45_598,281,-396
7.180_1L:100.05,-74.09,-99.68_25,-11,-30_254,114,-79_598,281,-396
7.196_1L:103.14,-73.40,-102.46_11,-11,-10_247,100,-104_598,281,-396
7.227_1L:107.63,-72.40,-106.35_8,6,-19_287,90,-67_612,235,-392
7.244_1L:107.92,-72.15,-105.68_38,8,-42_286,115,-48_612,235,-392
7.275_1L:105.94,-72.21,-102.66_66,-10,-48_253,140,-57_612,235,-392
7.291_1L:104.17,-72.14,-100.42_69,-37,-20_224,146,-87_612,235,-392
7.308_1L:103.72,-71.97,-100.53_65,-63,37_205,131,-113_612,235,-392
7.340_1L:105.37,-71.74,-103.21_58,-70,69_172,76,-102_612,235,-392
7.354_1L:106.55,-72.45,-105.15_64,-67,52_158,62,-63_679,175,-309
7.372_1L:103.40,-74.36,-101.72_104,-92,3_215,309,-58_679,175,-309
7.400_1L:96.24,-78.14,-94.84_124,-184,26_351,392,-120_679,175,-309
7.416_1L:77.84,-82.63,-78.50_147,-253,123_542,311,-69_679,175,-309
7.435_1L:22.65,-84.58,-25.62_180,-261,131_542,119,77_679,175,-309
7.452_1L:-10.29,-81.72,7.57_180,-201,-10_542,42,60_679,175,-309
7.480_1L:-14.55,-78.65,14.39_148,-103,-138_542,86,-12_761,-204,-11
7.499_1L:-9.23,-76.88,12.37_99,-3,-155_542,219,-58_761,-204,-11
7.516_1L:-3.85,-76.20,8.88_49,35,-90_542,340,-45_761,-204,-11
7.529_1L:-4.46,-75.75,10.20_31,-21,-23_542,511,-32_761,-204,-11
7.562_1L:-12.13,-74.83,19.85_36,-141,-76_542,511,-11_761,-204,-11
7.579_1L:-21.53,-72.19,34.61_65,-252,-233_335,461,31_761,-204,-11
7.596_1L:-28.45,-70.14,47.13_9,-250,-257_-82,511,107_686,-337,233
7.626_1L:-32.57,-66.80,57.92_43,-245,-257_-481,-177,570_686,-337,233
7.644_1L:-31.03,-60.92,61.92_230,-261,-252_-481,-512,570_686,-337,233
7.675_1L:-32.33,-57.36,67.10_97,-212,-135_-481,-512,485_686,-337,233
7.689_1L:-28.31,-62.38,62.99_-164,243,0_-425,-389,230_686,-337,233
7.706_1L:-20.35,-64.59,58.96_-47,139,-203_10,507,-8_686,-337,233
7.723_1L:-22.25,-63.10,62.11_59,-95,-27_52,511,54_441,-375,471
7.752_1L:-24.94,-61.89,64.81_42,-68,43_-60,-129,264_441,-375,471
7.768_1L:-25.49,-58.45,65.30_-9,9,35_-67,-105,285_441,-375,471
7.784_1L:-25.76,-55.87,64.46_-21,42,91_-60,-140,286_441,-375,471
7.803_1L:-27.32,-53.94,63.81_-7,51,146_-89,-138,279_441,-375,471
7.832_1L:-30.14,-51.79,63.01_0,53,213_-179,-170,281_441,-375,471
7.850_1L:-34.02,-52.73,62.11_-3,69,287_-285,-252,296_462,-509,341
7.879_1L:-39.03,-54.60,60.72_-25,92,322_-300,-217,225_462,-509,341
7.896_1L:-43.73,-56.15,58.76_0,106,376_-218,-191,138_462,-509,341
7.914_1L:-47.66,-54.83,55.34_44,153,365_-33,-272,118_462,-509,341
7.931_1L:-49.64,-54.45,51.76_44,242,256_29,-303,98_462,-509,341
7.959_1L:-50.11,-55.91,49.10_-1,240,133_52,-249,64_462,-509,341
7.977_1L:-53.98,-55.60,51.13_-52,160,82_119,-54,9_722,-377,-84
7.996_1L:-55.84,-57.96,51.27_-57,84,84_378,102,-9_722,-377,-84
8.023_1L:-56.11,-59.99,49.58_-16,114,96_542,231,80_722,-377,-84
8.041_1L:-53.91,-61.79,45.36_40,134,80_542,243,58_722,-377,-84
8.058_1L:-51.39,-63.44,41.51_30,127,54_436,172,-70_722,-377,-84
8.075_1L:-52.76,-64.81,42.12_-45,45,49_542,84,29_722,-377,-84
8.103_1L:-53.92,-65.66,43.74_-48,13,-12_542,79,154_762,-106,-189
8.123_1L:-51.08,-66.30,42.27_9,35,-78_542,53,138_762,-106,-189
8.139_1L:-48.57,-66.71,40.27_24,39,-43_495,100,64_762,-106,-189
8.167_1L:-50.14,-67.11,40.85_-17,2,48_390,18,-4_762,-106,-189
8.185_1L:-54.05,-68.28,43.27_-73,13,86_349,-102,-5_762,-106,-189
8.203_1L:-56.16,-71.07,45.36_-102,91,-1_386,-254,34_762,-106,-189
8.219_1L:-54.30,-73.99,44.78_-76,131,-78_375,-229,21_729,2,-277
8.248_1L:-50.07,-76.74,41.22_-40,124,-43_245,-35,-89_729,2,-277
8.264_1L:-56.05,-80.36,46.64_-25,107,9_220,-13,-67_729,2,-277
8.280_1L:-61.52,-83.57,51.35_-17,100,26_201,-37,-60_729,2,-277
8.312_1L:-68.40,-85.58,57.86_-7,95,11_190,-1,-65_729,2,-277
8.329_1L:-75.38,-87.99,64.87_3,98,-9_180,14,-71_729,2,-277
8.347_1L:-138.83,-89.55,128.53_12,71,-15_153,77,-73_656,243,-331
8.377_1L:124.93,-87.70,-135.29_6,50,1_152,129,-67_656,243,-331
8.394_1L:118.47,-84.04,-129.07_-22,70,12_157,157,-61_656,243,-331
8.412_1L:117.17,-79.33,-127.81_-42,64,1_145,164,-65_656,243,-331
8.439_1L:117.09,-75.74,-127.85_-29,25,5_238,215,-69_656,243,-331
8.457_1L:116.05,-74.64,-127.52_1,-19,39_257,196,-61_656,243,-331
8.475_1L:114.35,-73.94,-126.65_14,-23,45_208,53,-41_595,342,-352
8.503_1L:116.02,-73.81,-128.23_2,-6,-13_222,58,-60_595,342,-352
8.521_1L:118.64,-73.60,-130.71_7,-11,-12_278,102,-64_595,342,-352
8.538_1L:118.17,-73.52,-130.59_25,-19,13_285,66,-41_595,342,-352
8.552_1L:117.33,-73.95,-130.02_28,-14,8_276,62,-31_595,342,-352
8.583_1L:117.21,-74.17,-129.85_12,-6,-10_236,67,-23_595,342,-352
8.601_1L:117.47,-74.04,-130.01_-5,-8,-17_264,104,-38_615,326,-336
8.617_1L:117.70,-73.66,-130.60_-4,-22,5_310,101,-43_615,326,-336
8.648_1L:117.68,-73.92,-131.12_9,-28,18_298,38,-40_615,326,-336
8.665_1L:118.76,-74.51,-132.23_10,-15,-5_286,38,-47_615,326,-336
8.683_1L:120.71,-74.76,-133.83_3,-2,-23_287,80,-55_615,326,-336
8.699_1L:121.27,-74.45,-134.32_4,-2,-10_298,99,-52_615,326,-336
8.728_1L:120.84,-74.20,-134.11_9,-6,4_292,78,-49_620,311,-342
8.747_1L:120.77,-74.07,-134.11_10,-3,-4_280,66,-51_620,311,-342
8.763_1L:121.38,-73.86,-134.44_7,5,-20_274,76,-53_620,311,-342
8.792_1L:121.67,-73.55,-134.50_9,3,-19_278,101,-52_620,311,-342
8.809_1L:121.07,-73.18,-133.97_12,-5,-5_284,104,-47_620,311,-342
8.825_1L:120.35,-72.92,-133.44_11,-7,1_276,91,-43_620,311,-342
8.854_1L:119.95,-72.66,-133.11_7,-3,-6_273,74,-40_623,304,-344
8.872_1L:119.99,-72.55,-132.89_7,2,-20_267,75,-44_623,304,-344
8.889_1L:120.20,-72.51,-132.73_12,-3,-26_260,85,-43_623,304,-344
8.907_1L:119.98,-72.52,-132.16_19,-13,-26_243,78,-44_623,304,-344
8.936_1L:119.98,-72.58,-131.62_24,-15,-34_221,70,-43_623,304,-344
8.954_1L:120.39,-72.59,-131.08_26,-11,-57_193,52,-53_623,304,-344
8.971_1L:121.56,-72.85,-130.91_36,-14,-72_192,73,-67_644,256,-344
9.001_1L:122.08,-73.33,-130.02_63,-38,-66_230,82,-58_644,256,-344
9.018_1L:120.89,-74.76,-127.48_102,-77,-67_257,99,-37_644,256,-344
9.049_1L:119.39,-77.25,-124.39_111,-138,-92_237,84,-20_644,256,-344
9.061_1L:117.86,-80.78,-122.03_108,-199,-52_392,260,-89_644,256,-344
9.078_1L:119.82,-85.09,-125.21_105,-220,61_523,212,-68_644,256,-344
9.108_1L:111.50,-88.71,-119.26_108,-167,121_542,22,22_761,-81,-176
9.123_1L:-20.51,-88.61,12.58_87,-79,8_542,-48,57_761,-81,-176
9.140_1L:-15.32,-87.82,9.06_48,-13,-90_542,138,-58_761,-81,-176
9.156_1L:0.16,-87.50,-5.85_29,25,-35_542,351,-168_761,-81,-176
9.187_1L:23.63,-86.88,-29.68_26,60,13_542,371,-116_761,-81,-176
9.205_1L:39.25,-86.09,-42.92_22,54,-135_542,287,-64_761,-81,-176
9.222_1L:37.00,-85.38,-35.81_52,-7,-255_542,415,-165_793,-92,-63
9.250_1L:14.62,-84.15,-8.17_110,-94,-252_201,456,-188_793,-92,-63
9.267_1L:1.52,-82.27,9.70_117,-103,-240_-71,322,-75_793,-92,-63
9.283_1L:3.64,-79.14,12.61_202,-139,-257_-279,145,85_793,-92,-63
9.314_1L:-0.60,-70.37,22.39_398,-217,-257_-481,164,321_793,-92,-63
9.330_1L:-3.65,-59.13,31.02_612,-261,-257_-481,118,534_793,-92,-63
9.347_1L:-4.39,-52.24,37.55_371,-256,-257_-481,329,570_352,23,639
9.378_1L:-14.47,-53.27,43.92_-64,-166,254_-481,-128,544_352,23,639
9.394_1L:-10.93,-55.79,38.35_-82,199,72_80,-512,193_352,23,639
9.411_1L:-5.91,-55.56,36.94_32,46,-194_-216,511,18_352,23,639
9.427_1L:-7.77,-55.10,37.93_30,-28,71_141,511,242_352,23,639
9.458_1L:-10.07,-55.35,39.34_-10,-33,75_69,247,317_352,23,639
9.474_1L:-12.04,-55.88,40.18_-23,-14,85_7,104,305_406,-71,590
9.491_1L:-11.75,-54.35,38.50_-34,-6,115_-9,52,313_406,-71,590
9.522_1L:-13.50,-52.76,37.93_-43,-15,173_-31,53,317_406,-71,590
9.538_1L:-18.56,-51.41,38.24_-53,-39,303_-118,82,280_406,-71,590
9.555_1L:-25.08,-50.08,37.81_-71,-29,449_-172,-82,270_406,-71,590
9.574_1L:-31.33,-50.20,37.23_-102,70,377_-217,-447,339_406,-71,590
9.603_1L:-33.33,-53.47,35.80_-110,139,190_-184,-395,343_577,-469,251
9.635_1L:-35.83,-57.07,33.08_-74,151,237_-143,-98,235_577,-469,251
9.648_1L:-39.25,-55.66,30.55_-79,125,351_-129,-49,-4_577,-469,251
9.664_1L:-47.98,-57.81,32.68_-106,45,389_117,-51,-50_577,-469,251
9.680_1L:-55.82,-59.49,35.07_-76,27,339_317,-127,-9_577,-469,251
9.711_1L:-61.90,-61.00,36.91_-31,33,246_350,-35,-88_577,-469,251
9.729_1L:-66.25,-62.63,37.63_-23,58,222_393,50,-138_700,-340,-243
9.747_1L:-69.10,-64.68,36.80_-9,91,184_503,-34,-70_700,-340,-243
9.775_1L:-68.46,-67.58,35.52_-19,154,42_542,-56,-39_700,-340,-243
9.791_1L:-66.75,-70.23,34.47_-22,131,-26_542,118,-88_700,-340,-243
9.810_1L:-66.09,-71.74,33.71_-10,77,14_542,229,-47_700,-340,-243
9.827_1L:-67.06,-72.66,34.33_-18,36,30_542,161,-11_700,-340,-243
9.856_1L:-70.22,-73.22,37.48_-48,6,18_492,68,-14_704,-94,-335
9.875_1L:-76.39,-73.52,42.82_-72,-13,59_476,13,-107_704,-94,-335
9.891_1L:-81.46,-74.12,46.21_-49,16,102_542,-88,-62_704,-94,-335
9.918_1L:-82.52,-75.30,45.70_5,56,82_471,-167,-63_704,-94,-335
9.935_1L:-80.11,-76.30,42.41_42,55,44_305,-150,-89_704,-94,-335
9.952_1L:-79.03,-77.26,41.03_35,62,11_225,-90,-90_704,-94,-335
9.968_1L:-86.75,-78.40,48.76_23,90,-15_234,-54,-68_684,71,-357
10.001_1L:-93.59,-80.82,55.89_32,117,-27_251,-12,-69_684,71,-357
10.018_1L:-100.77,-83.36,63.27_43,107,-22_210,17,-76_684,71,-357
10.035_1L:-114.93,-85.37,77.51_41,74,-13_167,43,-76_684,71,-357
10.063_1L:-135.84,-86.66,98.49_28,61,-9_167,86,-61_684,71,-357
10.079_1L:173.32,-87.00,149.38_17,65,-8_214,80,-46_684,71,-357
10.096_1L:138.18,-85.17,-175.65_11,64,4_213,112,-47_661,249,-312
10.128_1L:122.82,-81.82,-160.91_5,44,23_201,85,-40_661,249,-312
10.145_1L:120.65,-80.23,-159.39_-3,16,25_244,97,-30_661,249,-312
10.162_1L:118.08,-78.64,-157.46_-7,11,19_258,101,-21_661,249,-312
10.177_1L:115.91,-77.30,-155.86_-11,17,14_257,84,-28_661,249,-312
10.208_1L:115.68,-76.28,-156.36_-16,9,20_258,75,-43_661,249,-312
10.226_1L:117.17,-75.70,-158.88_-18,-9,37_272,43,-57_628,319,-323
10.254_1L:120.21,-75.61,-162.39_-9,-6,26_298,32,-47_628,319,-323
10.272_1L:121.06,-75.49,-162.88_3,19,-14_298,44,-37_628,319,-323
10.289_1L:120.95,-75.23,-162.06_7,26,-32_271,121,-53_628,319,-323
10.307_1L:120.15,-74.24,-160.76_7,6,-24_283,126,-48_628,319,-323
10.335_1L:119.59,-73.86,-160.02_10,-15,-9_285,107,-45_628,319,-323
10.352_1L:119.24,-73.76,-159.60_12,-21,-3_279,72,-41_622,322,-330
10.371_1L:119.71,-74.00,-159.88_10,-19,-9_285,63,-50_622,322,-330
10.399_1L:120.82,-74.25,-160.72_10,-18,-11_286,58,-60_622,322,-330
10.416_1L:122.30,-74.46,-162.07_9,-18,-4_284,62,-60_622,322,-330
10.434_1L:123.46,-74.51,-163.11_9,-13,-3_285,46,-54_622,322,-330
10.451_1L:124.68,-74.60,-164.04_6,-3,-11_285,44,-51_622,322,-330
10.479_1L:125.75,-74.64,-164.79_4,2,-12_288,64,-57_634,300,-334
10.498_1L:126.25,-74.37,-165.01_4,3,-11_286,70,-54_634,300,-334
10.515_1L:126.45,-74.13,-164.86_6,1,-16_285,72,-51_634,300,-334
10.543_1L:126.38,-73.98,-164.35_10,0,-22_279,70,-51_634,300,-334
10.561_1L:126.34,-73.87,-163.76_13,-1,-26_272,63,-49_634,300,-334
10.578_1L:126.46,-73.82,-163.13_15,2,-38_264,46,-43_634,300,-334
10.595_1L:126.86,-74.10,-162.34_22,4,-57_249,32,-38_634,275,-344
10.625_1L:127.43,-74.77,-161.12_34,5,-81_228,38,-45_634,275,-344
10.643_1L:127.86,-75.27,-159.43_48,-1,-102_221,61,-57_634,275,-344
10.659_1L:127.47,-75.72,-157.00_71,-22,-104_234,97,-69_634,275,-344
10.688_1L:126.31,-76.40,-153.69_96,-63,-108_272,89,-55_634,275,-344
10.705_1L:124.91,-78.42,-150.42_114,-102,-100_271,121,-51_634,275,-344
10.736_1L:119.41,-80.40,-143.58_130,-112,-70_400,159,-11_743,64,-229
10.751_1L:107.69,-82.91,-129.42_135,-76,-97_503,131,17_743,64,-229
10.768_1L:90.52,-84.11,-109.48_130,-51,-134_523,243,-22_743,64,-229
10.796_1L:67.13,-84.58,-84.71_131,-57,-69_538,363,-64_743,64,-229
10.813_1L:41.25,-84.11,-59.25_126,-62,25_542,317,-105_743,64,-229
10.831_1L:26.89,-82.83,-45.86_112,-35,51_542,212,-120_743,64,-229
10.848_1L:22.56,-81.41,-41.56_87,-4,-5_542,186,-92_797,-67,30
10.877_1L:21.63,-80.57,-39.49_56,-4,-51_542,299,-118_797,-67,30
10.894_1L:18.18,-80.34,-35.20_30,-35,-30_487,444,-185_797,-67,30
10.912_1L:12.93,-80.35,-29.19_21,-57,-26_284,511,-106_797,-67,30
10.928_1L:3.12,-79.18,-16.92_80,-109,-107_110,453,38_797,-67,30
10.957_1L:-9.56,-75.30,0.84_194,-237,-242_-263,399,157_797,-67,30
10.974_1L:-14.52,-68.52,11.51_307,-261,-257_-481,449,486_784,-99,76
11.004_1L:-15.99,-61.77,19.20_284,-261,-257_-481,-512,570_784,-99,76
11.021_1L:-18.04,-57.37,26.52_167,-261,-208_-481,-376,570_784,-99,76
11.037_1L:-33.84,-56.27,31.80_20,-179,629_-481,-23,-359_784,-99,76
11.054_1L:-29.00,-57.65,25.08_49,192,45_196,-512,168_784,-99,76
11.084_1L:-21.54,-57.10,21.93_81,66,-255_-266,511,-13_784,-99,76
11.100_1L:-23.23,-56.31,23.66_30,-65,21_142,511,478_310,-542,421
11.118_1L:-28.70,-57.58,27.75_-84,-55,128_61,-49,288_310,-542,421
11.148_1L:-28.90,-56.37,28.27_-91,-14,57_112,-104,239_310,-542,421
11.166_1L:-29.36,-54.11,28.53_-12,0,57_129,-94,201_310,-542,421
11.183_1L:-29.63,-51.67,27.71_36,20,94_-61,-220,278_310,-542,421
11.200_1L:-31.62,-51.11,27.88_13,22,126_-105,-141,284_310,-542,421
11.229_1L:-34.33,-50.30,27.20_-32,69,217_-223,-170,251_353,-446,480
11.248_1L:-37.69,-53.07,25.74_-60,121,244_-239,-276,250_353,-446,480
11.277_1L:-39.39,-55.74,23.90_-58,143,203_-206,-308,267_353,-446,480
11.291_1L:-40.70,-58.89,21.29_-62,165,210_-220,-221,242_353,-446,480
11.308_1L:-42.34,-62.40,17.98_-72,192,273_-217,-139,186_353,-446,480
11.338_1L:-44.82,-62.96,15.64_-97,164,263_20,-201,91_353,-446,480
11.352_1L:-50.73,-62.65,18.33_-95,111,175_205,-32,36_580,-535,125
11.370_1L:-52.58,-66.22,18.36_-64,96,119_295,62,0_580,-535,125
11.386_1L:-51.80,-70.07,15.55_-19,93,138_425,146,-25_580,-535,125
11.416_1L:-54.06,-71.42,14.33_-13,66,200_371,141,-73_580,-535,125
11.434_1L:-59.96,-72.65,15.93_-46,36,260_405,123,-177_580,-535,125
11.452_1L:-67.26,-74.51,19.63_-80,56,215_542,-7,-59_580,-535,125
11.468_1L:-70.74,-77.00,23.28_-82,105,15_542,-87,14_724,-283,-235
11.499_1L:-72.53,-80.30,28.45_-81,131,-143_542,90,-52_724,-283,-235
11.526_1L:-78.76,-82.02,35.91_-74,70,-53_463,269,-181_724,-283,-235
11.540_1L:-90.91,-82.55,46.34_-67,14,101_542,77,-154_724,-283,-235
11.556_1L:-98.59,-82.68,52.08_-32,4,113_542,-207,-105_724,-283,-235
11.586_1L:-98.56,-83.22,52.50_9,22,-19_375,-343,-122_724,-283,-235
11.601_1L:-92.78,-83.86,48.43_36,26,-91_253,-285,-144_649,-79,-433
11.618_1L:-86.03,-84.89,41.95_37,43,-9_224,-251,-149_649,-79,-433
11.648_1L:-79.40,-86.33,33.51_37,86,101_212,-298,-109_649,-79,-433
11.665_1L:-41.01,-88.02,-6.76_51,117,99_175,-349,-73_649,-79,-433
11.681_1L:25.55,-87.31,-73.46_58,128,7_89,-269,-42_649,-79,-433
11.698_1L:-23.01,-87.36,-24.66_46,113,-20_22,-38,-28_649,-79,-433
11.728_1L:25.35,-87.36,-73.33_4,113,16_24,210,-4_676,94,-370
11.745_1L:75.26,-82.74,-123.50_-19,116,17_261,511,-26_676,94,-370
11.762_1L:80.02,-80.98,-128.36_-10,97,9_256,511,-49_676,94,-370
11.778_1L:81.67,-80.45,-129.94_-3,24,2_306,450,-49_676,94,-370
11.809_1L:80.95,-81.13,-129.22_6,-43,8_273,266,-64_676,94,-370
11.827_1L:78.71,-82.37,-127.52_7,-71,35_231,19,-94_676,94,-370
11.845_1L:96.78,-83.34,-145.88_2,-39,30_240,-168,-80_619,286,-361
11.874_1L:116.13,-85.63,-164.94_6,1,-5_262,-168,-68_619,286,-361
11.891_1L:135.99,-86.45,175.59_5,16,-15_294,-40,-47_619,286,-361
11.906_1L:146.51,-86.36,164.99_5,7,10_309,90,-36_619,286,-361
11.922_1L:139.35,-85.52,172.02_-3,3,10_293,132,-24_619,286,-361
11.954_1L:131.87,-84.39,179.68_-8,5,-7_292,137,-31_619,286,-361
11.972_1L:128.09,-83.35,-176.29_-5,-6,-9_298,116,-52_630,273,-355
12.001_1L:127.75,-82.87,-176.25_7,-29,13_299,55,-70_630,273,-355
12.018_1L:130.48,-82.82,-179.40_18,-32,23_269,-5,-57_630,273,-355
12.034_1L:136.92,-82.81,174.46_10,-4,-13_249,-7,-55_630,273,-355
12.051_1L:143.55,-82.36,168.53_1,12,-30_271,48,-66_630,273,-355
12.081_1L:142.66,-81.44,169.70_5,8,-12_281,69,-61_630,273,-355
12.098_1L:140.54,-80.65,171.99_7,1,-6_272,64,-52_630,263,-357
12.114_1L:139.34,-80.01,173.46_6,-7,-14_271,80,-49_630,263,-357
12.145_1L:137.42,-79.39,175.74_8,-10,-20_283,81,-54_630,263,-357
12.162_1L:136.45,-78.91,177.22_9,-9,-29_289,61,-53_630,263,-357
12.180_1L:136.66,-78.69,177.58_10,-11,-30_288,52,-61_630,263,-357
12.197_1L:137.69,-78.59,176.93_12,-16,-21_286,39,-60_630,263,-357
12.226_1L:139.38,-78.66,175.56_14,-19,-16_287,44,-61_633,237,-366
12.245_1L:140.63,-78.61,174.83_13,-15,-22_283,20,-60_633,237,-366
12.261_1L:143.09,-78.70,173.22_13,-9,-38_286,36,-68_633,237,-366
12.290_1L:144.25,-78.68,172.98_21,-9,-45_286,34,-71_633,237,-366
12.307_1L:145.67,-78.98,172.72_36,-18,-54_278,31,-70_633,237,-366
12.322_1L:146.71,-79.59,173.13_57,-22,-72_248,24,-65_633,237,-366
12.352_1L:147.74,-80.44,174.15_79,-22,-99_232,30,-67_654,175,-366
12.371_1L:147.68,-81.55,176.80_104,-30,-122_249,62,-50_654,175,-366
12.402_1L:142.41,-82.95,-174.95_120,-49,-153_299,102,-41_654,175,-366
12.415_1L:128.92,-84.56,-157.93_134,-42,-174_397,168,-77_654,175,-366
12.433_1L:100.09,-86.07,-126.00_159,-23,-158_487,249,-84_654,175,-366
12.464_1L:57.01,-85.65,-80.36_182,-23,-138_542,345,-99_654,175,-366
12.477_1L:26.52,-83.58,-47.92_188,-56,-101_542,434,-138_762,-11,-177
12.509_1L:9.26,-79.99,-30.47_195,-64,-1_542,421,-180_762,-11,-177
12.522_1L:2.58,-76.72,-24.15_183,-54,22_542,344,-132_762,-11,-177
12.540_1L:0.84,-74.52,-20.75_128,-51,-90_542,261,-118_762,-11,-177
12.557_1L:0.93,-72.52,-17.48_112,-57,-174_453,305,-182_762,-11,-177
12.585_1L:-0.59,-70.07,-12.17_140,-105,-199_299,313,-159_762,-11,-177
12.603_1L:-3.80,-66.73,-5.10_172,-157,-185_-26,511,-139_756,-121,228
12.635_1L:-7.52,-63.57,3.13_143,-186,-158_-246,453,150_756,-121,228
12.648_1L:-8.46,-61.23,10.12_103,-181,-244_-481,200,517_756,-121,228
12.666_1L:-9.05,-56.05,17.05_255,-242,-257_-481,126,570_756,-121,228
12.696_1L:-8.91,-49.86,23.76_293,-261,-249_-481,240,570_756,-121,228
12.709_1L:-13.92,-47.33,29.89_100,-229,50_-481,-512,570_756,-121,228
12.727_1L:-13.56,-50.90,26.10_-138,181,157_-375,-512,380_405,-67,594
12.756_1L:-7.45,-52.27,22.52_-33,105,-151_217,511,10_405,-67,594
12.773_1L:-11.21,-50.57,25.54_78,-118,69_34,339,193_405,-67,594
12.791_1L:-14.27,-49.86,26.86_36,-59,110_37,-58,287_405,-67,594
12.808_1L:-14.95,-47.02,26.39_3,4,60_26,49,292_405,-67,594
12.836_1L:-13.46,-44.88,24.06_-6,22,71_-9,-16,297_405,-67,594
12.854_1L:-13.72,-42.39,22.57_-16,28,92_-13,51,285_385,-164,571
12.872_1L:-14.08,-40.01,21.08_-26,16,156_-62,94,275_385,-164,571
12.900_1L:-16.58,-37.94,19.59_-33,10,285_-115,124,251_385,-164,571
12.918_1L:-18.69,-36.79,17.07_-59,67,319_-212,-81,288_385,-164,571
12.935_1L:-22.45,-39.08,15.64_-91,113,260_-298,-237,329_385,-164,571
12.967_1L:-26.46,-41.85,14.06_-92,129,294_-228,-15,135_385,-164,571
12.980_1L:-31.78,-38.83,11.41_-45,117,412_-36,26,32_523,-430,353
12.999_1L:-40.17,-40.21,9.88_21,105,502_128,-37,-12_523,-430,353
13.026_1L:-46.98,-41.93,8.02_35,123,452_220,-267,27_523,-430,353
13.044_1L:-51.35,-44.34,8.32_-35,122,233_238,-307,60_523,-430,353
13.061_1L:-52.94,-46.59,9.48_-76,86,76_389,-32,37_523,-430,353
13.079_1L:-54.37,-47.98,10.78_-47,45,58_542,128,5_523,-430,353
13.107_1L:-56.22,-48.79,11.90_-27,25,89_519,114,-15_719,-371,-152
13.127_1L:-59.53,-49.69,14.05_-57,5,100_538,96,-96_719,-371,-152
13.140_1L:-63.36,-50.44,16.89_-86,-9,109_468,25,-83_719,-371,-152
13.170_1L:-66.86,-50.85,19.60_-70,-17,90_542,-103,-45_719,-371,-152
13.187_1L:-69.37,-50.85,20.94_-24,-18,96_471,-116,-94_719,-371,-152
13.204_1L:-71.72,-50.79,21.39_6,-10,119_328,-140,-125_719,-371,-152
13.238_1L:-74.42,-51.14,22.24_-15,7,126_315,-243,-137_664,-288,-360
13.252_1L:-76.74,-51.42,23.00_-3,5,101_522,-219,-58_664,-288,-360
13.267_1L:-76.31,-51.86,21.28_72,35,69_516,-204,-27_664,-288,-360
13.286_1L:-74.16,-52.73,18.13_106,68,38_360,-203,-29_664,-288,-360
13.315_1L:-72.06,-54.17,15.78_72,96,10_227,-207,-60_664,-288,-360
13.333_1L:-73.58,-55.99,16.92_15,104,11_190,-128,-95_664,-288,-360
13.350_1L:-78.61,-58.36,20.89_11,100,24_233,-68,-108_710,-99,-327
13.379_1L:-82.67,-62.07,23.11_56,93,46_284,-35,-66_710,-99,-327
13.396_1L:-82.23,-65.50,21.63_80,105,32_234,-60,-42_710,-99,-327
13.414_1L:-81.25,-68.92,20.82_64,122,-29_216,24,-40_710,-99,-327
13.441_1L:-78.97,-72.44,18.99_58,92,-35_239,131,-26_710,-99,-327
13.459_1L:-73.44,-76.73,12.41_80,39,50_287,169,-21_710,-99,-327
13.477_1L:-67.03,-78.64,4.21_76,37,97_236,23,-3_724,163,-237
13.506_1L:-60.70,-81.09,-3.17_35,63,55_213,-20,10_724,163,-237
13.523_1L:-57.85,-82.10,-6.56_8,47,32_262,48,19_724,163,-237
13.540_1L:-48.83,-83.35,-17.20_24,5,90_315,137,10_724,163,-237
13.555_1L:-41.49,-83.70,-27.10_40,4,144_305,85,-3_724,163,-237
13.571_1L:-25.01,-84.76,-44.51_26,40,53_242,-82,28_724,163,-237
13.602_1L:-29.23,-83.98,-39.66_24,35,-34_285,-19,41_723,283,-91
13.619_1L:-25.35,-83.45,-43.21_25,2,-17_275,102,16_723,283,-91
13.635_1L:-11.92,-84.01,-56.95_14,-10,21_270,64,28_723,283,-91
13.666_1L:0.28,-84.23,-69.32_2,-5,14_269,7,38_723,283,-91
13.682_1L:2.78,-84.24,-71.36_-5,-2,-22_289,20,31_723,283,-91
13.699_1L:5.18,-84.41,-73.27_-4,-12,-21_304,55,15_723,283,-91
13.729_1L:9.71,-84.63,-77.86_1,-17,8_302,35,9_709,317,-77
13.746_1L:13.74,-84.92,-82.01_1,-11,8_293,-7,14_709,317,-77
13.763_1L:13.11,-85.22,-81.11_1,-4,-15_293,-8,10_709,317,-77
13.779_1L:12.00,-85.56,-79.67_1,-6,-18_292,33,-2_709,317,-77
13.810_1L:18.12,-85.91,-85.72_2,-11,-2_292,58,-5_709,317,-77
13.828_1L:28.64,-86.06,-96.37_2,-11,9_290,34,0_709,317,-77
13.845_1L:35.35,-86.20,-103.17_2,-10,7_295,11,1_715,303,-92
13.874_1L:38.52,-86.48,-106.23_0,-7,-6_295,20,-2_715,303,-92
13.892_1L:44.38,-86.68,-111.91_0,-7,-9_299,30,-3_715,303,-92
13.909_1L:50.35,-86.78,-117.78_1,-11,-4_298,26,-3_715,303,-92
13.925_1L:54.23,-86.91,-121.64_4,-15,0_296,33,-4_715,303,-92
13.954_1L:60.03,-86.86,-127.42_4,-10,1_289,23,-4_715,303,-92
13.971_1L:66.77,-86.82,-133.96_1,-4,-9_291,9,-1_722,286,-104
13.987_1L:70.29,-86.93,-137.11_3,-4,-18_300,19,-2_722,286,-104
14.017_1L:72.51,-86.93,-139.09_7,-8,-12_302,37,-6_722,286,-104
14.034_1L:75.76,-86.75,-142.26_8,-9,-4_293,35,-5_722,286,-104
14.051_1L:79.61,-86.49,-145.89_6,-6,-11_287,7,6_722,286,-104
14.067_1L:79.60,-86.61,-145.34_5,-5,-28_289,-13,19_722,286,-104
14.098_1L:74.83,-87.05,-139.45_5,-8,-58_289,-51,32_724,276,-118
14.115_1L:58.52,-87.97,-120.71_3,-14,-122_295,-92,38_724,276,-118
14.134_1L:2.88,-88.66,-60.89_-5,-36,-219_292,-96,23_724,276,-118
14.163_1L:-53.55,-87.38,0.21_3,-65,-257_327,-52,-1_724,276,-118
14.180_1L:-58.14,-85.53,9.71_37,-89,-257_373,42,-29_724,276,-118
14.198_1L:-50.35,-83.46,6.56_84,-94,-257_392,85,-11_724,276,-118
14.226_1L:-42.95,-80.71,4.00_115,-104,-257_379,72,1_754,62,-193
14.245_1L:-35.23,-77.80,1.51_132,-86,-257_500,116,2_754,62,-193
14.262_1L:-28.27,-74.99,-1.42_151,-58,-207_500,372,-151_754,62,-193
14.290_1L:-27.24,-72.20,-0.95_139,-84,-73_542,445,-153_754,62,-193
14.307_1L:-25.85,-69.25,-2.04_153,-56,-11_542,252,-87_754,62,-193
14.325_1L:-22.33,-66.56,-3.54_155,-37,-105_542,196,-105_754,62,-193
14.356_1L:-19.15,-63.85,-3.55_141,-55,-152_542,396,-181_771,-172,139
14.370_1L:-19.89,-61.12,-0.73_115,-105,-66_542,511,-238_771,-172,139
14.401_1L:-22.37,-59.19,3.96_58,-146,-62_368,511,-258_771,-172,139
14.414_1L:-21.50,-57.97,7.97_30,-129,-214_27,499,-64_771,-172,139
14.431_1L:-19.76,-53.13,12.41_198,-218,-257_-105,194,160_771,-172,139
14.462_1L:-11.38,-43.95,11.70_325,-261,-257_-481,173,508_771,-172,139
14.475_1L:-9.68,-39.11,16.97_235,-261,-257_-481,-512,570_497,-215,515
14.507_1L:-11.29,-35.86,23.49_109,-214,-62_-346,-512,202_497,-215,515
14.520_1L:-7.54,-38.93,17.76_-107,297,24_-481,19,237_497,-215,515
14.538_1L:-3.57,-39.61,16.97_-18,75,-153_213,511,-13_497,-215,515
14.555_1L:-5.94,-38.27,21.41_61,-148,15_179,511,100_497,-215,515
14.582_1L:-7.10,-37.53,23.68_40,-63,23_-60,-48,284_497,-215,515
14.600_1L:-6.90,-34.25,24.85_11,-8,-20_12,84,324_327,-54,623
14.618_1L:-6.25,-33.49,23.94_-13,22,38_-58,153,326_327,-54,623
14.633_1L:-7.58,-33.97,23.68_-33,14,99_-47,115,300_327,-54,623
14.662_1L:-9.28,-32.95,22.97_-32,-1,175_-55,149,244_327,-54,623
14.679_1L:-10.94,-31.31,21.11_-32,14,276_-227,-20,295_327,-54,623
14.698_1L:-16.27,-33.01,20.21_-61,59,310_-316,-123,362_327,-54,623
14.726_1L:-21.64,-35.18,19.04_-79,85,337_-341,-76,361_405,-301,517
14.745_1L:-30.22,-37.09,18.76_-42,75,450_-328,-49,208_405,-301,517
14.760_1L:-39.12,-38.34,17.17_28,111,576_-163,-63,52_405,-301,517
14.776_1L:-48.64,-37.77,13.88_94,154,627_-31,-151,-51_405,-301,517
14.807_1L:-57.07,-39.32,10.78_114,189,564_80,-239,-47_405,-301,517
14.825_1L:-66.67,-41.41,10.91_67,205,383_166,-333,-4_405,-301,517
14.842_1L:-69.21,-44.24,9.98_18,161,209_208,-258,37_679,-435,-126
14.872_1L:-71.41,-45.97,9.82_15,95,116_522,-67,129_679,-435,-126
14.888_1L:-71.72,-47.44,9.28_20,82,60_465,6,47_679,-435,-126
14.905_1L:-72.65,-49.06,9.64_-12,76,56_453,130,-56_679,-435,-126
14.933_1L:-75.10,-50.74,11.34_-58,70,84_523,9,21_679,-435,-126
14.950_1L:-75.75,-52.92,13.18_-62,93,-22_542,-253,123_679,-435,-126
14.969_1L:-73.05,-55.55,14.26_-47,124,-178_542,-46,36_738,-178,-262
14.998_1L:-71.54,-57.95,15.08_-37,98,-91_416,214,-88_738,-178,-262
15.016_1L:-74.87,-58.92,16.56_-41,33,126_366,225,-150_738,-178,-262
