0.000_1L:þ
Offsets:257,262,259,-43,-14,-59
P:roll,pitch,yaw;gyrox,gyroy,gyroz;accelx,accely,accelz;magx,magy,magz
5.744_1L:-0.02,0.02,-0.00_6,-3,-1_3,3,249_0,0,0
5.775_1L:0.02,-0.04,-0.00_6,-3,0_0,-2,248_0,0,0
5.791_1L:-0.05,-0.01,0.00_6,-3,-1_-1,-3,251_0,0,0
5.807_1L:-0.11,0.03,-0.00_6,-3,-2_1,-1,249_0,0,0
5.838_1L:-0.14,0.02,-0.02_6,-2,-1_2,1,248_0,0,0
5.855_1L:-0.14,-0.01,-0.04_6,-2,0_-1,-3,248_47,-434,830
5.887_1L:-0.22,0.04,1.31_6,-2,-1_-1,-5,250_47,-434,830
5.903_1L:-0.31,0.10,2.72_7,-2,-2_1,-2,248_47,-434,830
5.921_1L:-0.33,0.10,4.06_7,-2,-2_2,3,248_47,-434,830
5.938_1L:-0.24,0.06,5.46_6,-2,-1_0,2,248_47,-434,830
5.954_1L:-0.21,0.09,6.79_7,-2,0_-1,-2,250_47,-434,830
5.983_1L:-0.25,0.14,8.18_7,-2,-1_1,-5,250_46,-432,822
6.002_1L:-0.34,0.13,9.49_6,-2,-2_0,-5,248_46,-432,822
6.018_1L:-0.42,0.13,10.86_6,-2,-2_-1,-1,248_46,-432,822
6.047_1L:-0.42,0.16,12.16_6,-2,-1_-1,1,250_46,-432,822
6.065_1L:-0.37,0.19,13.51_6,-2,-1_0,0,248_46,-432,822
6.079_1L:-0.36,0.19,14.78_6,-2,-1_-1,-1,249_46,-432,822
6.096_1L:-0.36,0.21,16.06_6,-3,-1_1,-4,250_51,-431,826
6.129_1L:-0.42,0.18,17.39_6,-3,-2_0,-2,250_51,-431,826
6.145_1L:-0.42,0.18,18.64_6,-3,-2_2,1,248_51,-431,826
6.162_1L:-0.38,0.13,19.94_6,-3,-1_0,2,249_51,-431,826
6.191_1L:-0.33,0.14,21.17_6,-3,0_0,-2,250_51,-431,826
6.208_1L:-0.36,0.14,22.44_6,-3,-1_-1,-4,249_51,-431,826
6.226_1L:-0.44,0.15,23.65_5,-4,-1_-2,-1,247_49,-437,831
6.255_1L:-0.47,0.19,24.93_5,-5,1_-8,2,245_49,-437,831
6.271_1L:-0.51,0.31,26.16_3,-6,5_-14,12,242_49,-437,831
6.289_1L:-0.39,0.51,27.43_0,-6,9_-45,12,249_49,-437,831
6.306_1L:-0.19,1.13,28.61_-12,-5,4_-103,-39,273_49,-437,831
6.335_1L:-0.83,1.78,29.72_-38,0,2_-206,-94,318_49,-437,831
6.353_1L:-2.23,0.31,30.57_-76,13,73_-167,-56,426_71,-427,802
6.368_1L:-5.13,-1.46,31.09_-87,30,147_-103,-192,433_71,-427,802
6.398_1L:-7.76,-3.37,31.58_-97,36,141_45,-163,390_71,-427,802
6.415_1L:-10.51,-5.46,31.93_-98,49,142_224,-104,365_71,-427,802
6.432_1L:-12.76,-7.50,32.08_-96,63,125_343,-109,352_71,-427,802
6.448_1L:-13.81,-10.04,31.89_-109,87,61_459,-36,326_71,-427,802
6.479_1L:-14.21,-12.49,31.54_-108,97,33_506,63,264_387,-492,519
6.498_1L:-14.84,-15.13,30.54_-98,97,46_554,51,235_387,-492,519
6.514_1L:-14.33,-17.62,29.57_-107,105,-7_554,-69,217_387,-492,519
6.543_1L:-12.63,-20.73,28.82_-137,96,-69_554,31,86_387,-492,519
6.560_1L:-12.15,-23.77,28.82_-151,58,-18_554,280,-82_387,-492,519
6.578_1L:-12.99,-27.06,29.87_-167,11,28_554,423,-146_387,-492,519
6.595_1L:-13.95,-30.11,32.16_-177,-47,0_523,235,-49_668,-348,261
6.625_1L:-15.13,-29.88,36.76_-34,-188,-55_166,378,-44_668,-348,261
6.643_1L:-17.83,-27.96,41.44_37,-251,22_-391,495,53_668,-348,261
6.659_1L:-20.99,-25.99,46.36_18,-260,44_-469,78,422_668,-348,261
6.686_1L:-20.29,-23.96,50.73_27,-260,-144_-469,-222,494_668,-348,261
6.703_1L:-18.51,-19.97,54.14_148,-260,-170_-469,-498,461_668,-348,261
6.736_1L:-17.10,-16.44,55.22_156,-134,-99_-422,-498,557_205,-630,340
6.751_1L:-16.45,-19.83,52.69_-96,175,18_-74,-193,291_205,-630,340
6.765_1L:-15.25,-21.80,50.72_-86,172,-29_-55,59,129_205,-630,340
6.795_1L:-13.41,-22.34,48.64_-16,142,-19_-162,44,160_205,-630,340
6.812_1L:-11.34,-18.30,46.17_19,130,29_-308,44,241_205,-630,340
6.829_1L:-11.65,-19.14,44.13_-10,153,66_-390,-34,321_205,-630,340
6.845_1L:-11.67,-21.01,41.79_-58,173,59_-433,-66,314_482,-511,315
6.877_1L:-11.98,-22.82,38.96_-53,155,73_-336,-11,234_482,-511,315
6.895_1L:-13.25,-23.28,36.56_11,129,120_-204,9,150_482,-511,315
6.911_1L:-14.01,-17.71,34.39_43,101,130_-112,-18,113_482,-511,315
6.940_1L:-15.60,-16.74,33.45_21,62,105_-18,4,88_482,-511,315
6.956_1L:-17.28,-17.44,33.75_-30,16,92_123,66,25_482,-511,315
6.973_1L:-19.21,-18.49,35.11_-43,-37,95_554,53,-48_647,-471,169
7.004_1L:-20.88,-18.12,35.66_13,-31,73_554,80,15_647,-471,169
7.021_1L:-22.04,-17.32,36.63_26,-61,44_554,60,42_647,-471,169
7.039_1L:-23.56,-16.60,39.26_-14,-143,40_554,-42,60_647,-471,169
7.056_1L:-24.99,-15.48,42.31_-8,-167,29_554,-224,136_647,-471,169
7.084_1L:-25.64,-13.85,44.19_39,-136,7_523,-308,141_647,-471,169
7.102_1L:-25.64,-12.62,44.73_46,-63,-10_356,-324,129_465,-673,114
7.132_1L:-25.01,-12.70,44.80_6,10,-30_237,-338,132_465,-673,114
7.149_1L:-24.01,-13.22,44.54_-8,34,-47_293,-296,164_465,-673,114
7.166_1L:-23.36,-13.39,44.40_5,22,-32_293,-224,144_465,-673,114
7.184_1L:-23.35,-13.28,44.43_15,8,1_235,-237,116_465,-673,114
7.211_1L:-24.06,-13.86,44.59_13,10,7_227,-267,117_465,-673,114
7.229_1L:-23.78,-14.20,44.32_4,30,-14_262,-235,145_489,-641,153
7.248_1L:-23.13,-14.53,43.70_6,42,-23_274,-174,151_489,-641,153
7.276_1L:-23.42,-15.26,43.22_13,37,9_308,-128,152_489,-641,153
7.293_1L:-23.89,-15.61,42.57_19,43,34_357,-151,160_489,-641,153
7.311_1L:-23.59,-16.06,41.35_13,75,4_382,-215,197_489,-641,153
7.327_1L:-22.37,-16.78,39.86_4,98,-41_414,-193,203_489,-641,153
7.355_1L:-20.97,-17.48,38.19_7,103,-43_489,-147,188_600,-518,169
7.373_1L:-20.03,-17.84,36.26_20,92,-18_554,-39,82_600,-518,169
7.389_1L:-19.87,-17.77,34.33_42,91,22_554,5,-7_600,-518,169
7.419_1L:-20.05,-17.82,32.39_39,100,43_554,62,-9_600,-518,169
7.436_1L:-19.21,-18.42,31.04_1,80,-20_554,120,-22_600,-518,169
7.453_1L:-17.06,-19.83,31.23_-67,23,-119_554,404,-174_600,-518,169
7.487_1L:-15.41,-22.18,32.61_-126,-22,-111_479,525,-266_710,-336,169
7.502_1L:-15.37,-21.91,35.97_-26,-163,-69_251,525,-147_710,-336,169
7.532_1L:-13.22,-17.41,39.84_184,-260,-177_-251,441,120_710,-336,169
7.545_1L:-9.38,-12.55,43.39_231,-260,-257_-469,322,415_710,-336,169
7.563_1L:-5.37,-10.26,47.69_99,-260,-254_-469,292,570_710,-336,169
7.593_1L:-7.13,-8.16,51.15_93,-228,62_-469,-498,61_710,-336,169
7.605_1L:-6.47,-9.41,44.73_-27,300,14_-469,-498,352_198,-560,452
7.622_1L:-1.15,-10.59,41.11_-44,215,-227_10,525,136_198,-560,452
7.638_1L:-1.48,-10.93,40.82_-12,54,26_151,525,154_198,-560,452
7.668_1L:-3.27,-10.72,41.54_15,0,96_66,159,182_198,-560,452
7.685_1L:-0.02,-11.86,40.74_-17,42,41_21,-22,300_198,-560,452
7.703_1L:-0.56,-12.18,40.62_-41,48,21_-22,2,338_198,-560,452
7.719_1L:-2.08,-12.63,40.43_-50,49,94_-88,-22,315_385,-469,440
7.750_1L:-5.11,-12.06,39.90_-31,48,161_-102,-91,275_385,-469,440
7.767_1L:-8.46,-10.67,39.03_-13,75,152_-189,-203,258_385,-469,440
7.784_1L:-10.11,-11.89,37.07_-37,129,109_-262,-218,256_385,-469,440
7.812_1L:-11.77,-13.60,35.10_-61,143,120_-243,-152,250_385,-469,440
7.829_1L:-14.12,-15.49,33.81_-69,109,145_-43,-55,124_385,-469,440
7.847_1L:-17.06,-16.52,33.40_-49,65,169_117,-61,25_598,-524,166
7.876_1L:-20.83,-17.40,32.91_-12,40,182_200,-99,-13_598,-524,166
7.892_1L:-25.59,-21.21,33.15_-3,39,167_306,-76,-39_598,-524,166
7.908_1L:-29.70,-24.52,33.46_0,20,168_330,-41,-93_598,-524,166
7.924_1L:-33.55,-26.35,34.61_-24,-26,166_382,-49,-131_598,-524,166
7.955_1L:-36.28,-26.17,35.68_-11,-42,119_554,-74,-40_598,-524,166
7.972_1L:-37.33,-25.51,36.06_27,-33,50_538,-34,12_585,-569,-61
7.988_1L:-37.84,-24.33,36.60_44,-43,19_414,-45,32_585,-569,-61
8.019_1L:-38.24,-23.44,37.49_25,-55,8_429,-87,65_585,-569,-61
8.036_1L:-38.67,-22.56,38.94_6,-74,-2_487,-203,85_585,-569,-61
8.052_1L:-39.40,-21.40,40.65_7,-99,9_480,-222,111_585,-569,-61
8.068_1L:-40.72,-19.88,42.18_24,-101,44_371,-315,118_585,-569,-61
8.099_1L:-42.05,-18.86,43.64_3,-88,48_258,-436,99_440,-674,-77
8.116_1L:-43.12,-19.00,45.76_-50,-51,24_318,-389,50_440,-674,-77
8.132_1L:-44.01,-19.82,47.14_-63,-9,28_334,-334,33_440,-674,-77
8.165_1L:-44.22,-20.74,47.61_-33,27,7_309,-323,37_440,-674,-77
8.182_1L:-43.23,-21.61,47.18_-2,58,-41_237,-304,27_440,-674,-77
8.200_1L:-41.98,-22.45,46.80_-3,53,-52_161,-231,5_440,-674,-77
8.227_1L:-44.56,-24.77,48.26_-27,34,-28_143,-197,1_471,-648,-109
8.244_1L:-48.64,-27.53,50.57_-36,25,-3_271,-234,26_471,-648,-109
8.263_1L:-49.09,-28.65,50.85_-18,32,5_337,-212,8_471,-648,-109
8.291_1L:-49.43,-29.16,50.49_8,34,30_350,-175,-15_471,-648,-109
8.309_1L:-50.05,-29.63,49.90_18,42,54_400,-182,-12_471,-648,-109
8.327_1L:-50.10,-30.39,48.75_28,67,37_547,-207,17_471,-648,-109
8.343_1L:-48.91,-31.18,46.96_49,92,-10_554,-212,21_569,-556,-139
8.374_1L:-46.81,-31.82,44.71_57,86,-41_554,-137,-38_569,-556,-139
8.391_1L:-46.19,-32.27,43.03_51,75,19_554,19,-129_569,-556,-139
8.406_1L:-47.77,-32.85,41.44_44,73,132_554,129,-158_569,-556,-139
8.435_1L:-49.42,-33.73,40.48_16,69,125_554,71,-101_569,-556,-139
8.452_1L:-47.87,-35.22,40.32_-33,71,-73_554,268,-52_569,-556,-139
8.471_1L:-44.15,-35.58,41.50_-31,-19,-222_382,525,-109_679,-431,-115
8.501_1L:-44.62,-32.71,45.05_3,-207,-74_2,368,53_679,-431,-115
8.518_1L:-44.47,-29.63,49.48_-24,-260,-125_-450,23,419_679,-431,-115
8.548_1L:-42.26,-27.85,54.64_-97,-260,-257_-469,-180,570_679,-431,-115
8.561_1L:-39.16,-24.34,58.08_32,-260,-242_-469,58,479_679,-431,-115
8.579_1L:-41.59,-19.66,60.12_120,-260,83_-469,-370,187_679,-431,-115
8.607_1L:-44.88,-17.21,60.17_83,-108,159_-469,-498,-114_43,-748,18
8.624_1L:-39.07,-22.24,55.38_-1,339,-173_-469,16,110_43,-748,18
8.642_1L:-34.89,-25.31,54.77_-73,152,-188_127,525,142_43,-748,18
8.669_1L:-34.52,-26.25,54.96_-16,56,-5_20,166,173_43,-748,18
8.686_1L:-29.40,-26.07,52.07_36,46,67_-124,-29,139_43,-748,18
8.704_1L:-29.53,-24.07,50.97_47,76,78_-214,-162,202_43,-748,18
8.721_1L:-30.17,-22.71,49.63_31,119,66_-315,-225,255_335,-697,85
8.751_1L:-30.36,-24.25,47.35_5,149,66_-386,-236,246_335,-697,85
8.769_1L:-31.20,-25.53,45.07_18,148,106_-349,-209,188_335,-697,85
8.785_1L:-32.43,-26.22,42.22_64,161,149_-243,-234,174_335,-697,85
8.813_1L:-32.96,-27.13,38.76_70,185,124_-208,-280,152_335,-697,85
8.831_1L:-31.83,-28.34,36.58_24,151,11_-161,-306,155_335,-697,85
8.849_1L:-30.36,-29.84,35.36_-14,116,-27_211,25,15_623,-543,-35
8.878_1L:-29.20,-34.77,34.11_-41,80,5_527,69,-83_623,-543,-35
8.895_1L:-30.01,-35.99,33.58_-33,58,65_520,180,-172_623,-543,-35
8.913_1L:-32.29,-36.65,33.19_-10,40,144_554,160,-35_623,-543,-35
8.929_1L:-33.65,-36.84,31.99_31,54,115_554,15,43_623,-543,-35
8.958_1L:-32.52,-37.09,31.09_22,48,-24_499,-83,61_623,-543,-35
8.976_1L:-30.93,-37.02,32.26_-9,-35,-110_441,-42,-23_641,-476,-94
8.991_1L:-32.33,-35.76,35.76_-10,-143,-24_554,96,-65_641,-476,-94
9.022_1L:-35.87,-33.24,38.69_47,-171,104_554,68,33_641,-476,-94
9.040_1L:-37.92,-31.12,40.15_61,-119,73_554,-250,101_641,-476,-94
9.057_1L:-36.97,-30.80,41.15_-4,-43,-73_172,-486,93_641,-476,-94
9.073_1L:-34.80,-31.90,42.60_-77,-18,-158_241,-252,13_641,-476,-94
9.103_1L:-35.29,-34.26,44.77_-109,-1,-76_269,-121,-25_514,-613,-100
9.135_1L:-39.47,-38.87,47.80_-92,7,54_267,-142,-39_514,-613,-100
9.147_1L:-44.17,-42.15,50.17_-52,19,101_245,-178,-42_514,-613,-100
9.165_1L:-47.85,-44.43,52.01_-22,36,60_228,-233,-26_514,-613,-100
9.182_1L:-49.67,-45.59,53.40_-10,32,-9_207,-244,-14_514,-613,-100
9.210_1L:-51.25,-46.08,55.05_-2,15,-36_230,-176,-31_514,-613,-100
9.228_1L:-53.94,-47.24,57.09_14,5,-11_264,-147,-23_529,-568,-202
9.247_1L:-55.66,-48.67,58.20_28,14,4_304,-189,4_529,-568,-202
9.262_1L:-55.12,-49.28,57.72_24,34,-11_347,-187,7_529,-568,-202
9.291_1L:-53.94,-49.82,57.03_16,40,-27_440,-151,21_529,-568,-202
9.309_1L:-52.20,-50.47,55.89_23,52,-36_518,-120,32_529,-568,-202
9.326_1L:-49.90,-51.12,54.29_34,65,-48_516,-102,11_529,-568,-202
9.355_1L:-47.73,-51.55,52.72_38,56,-41_514,-51,-35_573,-539,-164
9.374_1L:-46.03,-52.02,51.30_29,49,-16_554,-22,-96_573,-539,-164
9.390_1L:-44.80,-52.73,50.00_17,60,2_554,1,-131_573,-539,-164
9.418_1L:-44.26,-53.26,49.04_15,48,26_554,60,-160_573,-539,-164
9.435_1L:-44.27,-53.15,48.70_26,9,29_554,90,-154_573,-539,-164
9.452_1L:-43.36,-52.50,49.40_23,-34,-62_554,113,-133_573,-539,-164
9.482_1L:-42.52,-51.21,51.57_15,-97,-124_510,217,-119_685,-433,-109
9.498_1L:-43.82,-47.58,55.49_47,-208,-75_-94,49,195_685,-433,-109
9.514_1L:-38.63,-41.69,56.86_26,-260,-214_-423,-100,494_685,-433,-109
9.544_1L:-36.43,-38.22,61.29_41,-260,-257_-469,-79,570_685,-433,-109
9.562_1L:-34.07,-33.74,64.24_128,-260,-220_-469,115,312_685,-433,-109
9.580_1L:-38.06,-30.10,68.15_50,-258,96_-469,-498,234_685,-433,-109
9.612_1L:-40.59,-31.63,67.77_-53,54,141_-56,-498,13_386,-642,200
9.626_1L:-34.56,-35.87,63.94_-49,230,-164_-287,-498,274_386,-642,200
9.655_1L:-30.50,-36.80,62.74_1,80,-174_152,525,147_386,-642,200
9.669_1L:-31.11,-36.19,63.55_23,-35,16_13,171,186_386,-642,200
9.686_1L:-26.42,-34.87,60.57_18,-36,82_-87,-104,188_386,-642,200
9.703_1L:-27.66,-31.12,60.77_-3,16,60_-189,-205,189_386,-642,200
9.732_1L:-29.17,-29.66,60.43_7,54,72_-216,-155,213_264,-665,257
9.751_1L:-31.51,-27.94,59.35_31,76,142_-289,-165,216_264,-665,257
9.768_1L:-33.81,-28.66,58.07_25,98,175_-340,-233,231_264,-665,257
9.796_1L:-35.48,-30.24,56.35_2,135,149_-395,-272,184_264,-665,257
9.813_1L:-36.19,-31.84,54.01_19,164,125_-258,-254,180_264,-665,257
9.831_1L:-36.51,-32.68,51.36_60,145,111_-199,-214,161_264,-665,257
9.860_1L:-38.04,-30.96,50.58_39,82,102_-112,-128,99_437,-689,32
9.875_1L:-40.33,-29.37,50.46_-11,63,97_260,-104,-19_437,-689,32
9.892_1L:-43.51,-33.69,51.66_-25,43,78_504,-85,-63_437,-689,32
9.908_1L:-44.65,-34.31,51.62_-2,36,73_554,-67,-71_437,-689,32
9.939_1L:-45.23,-34.33,51.80_13,7,38_554,-163,-31_437,-689,32
9.957_1L:-44.80,-33.98,52.54_10,-24,-32_554,-87,22_437,-689,32
9.974_1L:-43.53,-33.75,53.33_4,-23,-81_554,-76,30_558,-612,-110
10.003_1L:-43.28,-32.74,54.68_8,-69,-43_474,-62,-23_558,-612,-110
10.021_1L:-45.31,-31.21,56.57_8,-118,59_447,-78,-76_558,-612,-110
10.038_1L:-47.53,-29.67,57.52_33,-86,91_538,-201,16_558,-612,-110
10.066_1L:-47.43,-29.16,56.81_52,3,14_478,-301,77_558,-612,-110
10.084_1L:-45.69,-29.32,55.93_32,34,-67_200,-285,78_558,-612,-110
10.102_1L:-44.97,-29.71,56.28_-4,7,-66_206,-204,44_445,-673,-106
10.130_1L:-47.74,-31.46,58.73_-32,-21,-1_227,-186,18_445,-673,-106
10.146_1L:-50.91,-33.36,60.90_-35,-17,39_227,-242,4_445,-673,-106
10.163_1L:-53.01,-34.47,62.31_-24,5,21_224,-275,3_445,-673,-106
10.179_1L:-53.53,-35.08,62.63_-1,21,-2_233,-241,1_445,-673,-106
10.210_1L:-54.56,-35.83,62.95_19,19,3_220,-213,-1_445,-673,-106
10.227_1L:-56.52,-36.71,63.62_28,10,21_220,-207,7_453,-667,-103
10.243_1L:-58.47,-37.71,64.42_31,11,16_233,-262,33_453,-667,-103
10.274_1L:-58.40,-37.99,64.17_32,23,-6_265,-287,50_453,-667,-103
10.290_1L:-57.98,-38.33,63.49_30,33,7_362,-226,58_453,-667,-103
10.307_1L:-57.98,-38.71,62.61_37,41,38_469,-242,96_453,-667,-103
10.323_1L:-57.23,-39.31,61.01_56,68,22_491,-294,139_453,-667,-103
10.354_1L:-54.62,-40.32,59.00_54,93,-59_466,-271,136_504,-631,-96
10.371_1L:-51.01,-42.03,57.44_13,107,-119_455,-107,55_504,-631,-96
10.390_1L:-48.77,-44.28,56.55_-32,117,-74_536,56,-23_504,-631,-96
10.419_1L:-47.72,-46.55,55.66_-41,121,-11_554,124,-60_504,-631,-96
10.437_1L:-46.59,-48.28,54.98_-28,88,-21_554,52,-35_504,-631,-96
10.454_1L:-45.42,-48.39,55.31_2,2,-65_554,113,-67_504,-631,-96
10.470_1L:-45.02,-46.84,57.22_23,-99,-81_514,170,-108_693,-439,-43
10.501_1L:-45.96,-45.28,59.75_-5,-121,-48_114,76,78_693,-439,-43
10.519_1L:-43.34,-44.02,61.90_-6,-149,-193_-138,-32,292_693,-439,-43
10.550_1L:-38.88,-38.56,64.00_38,-237,-257_-371,165,346_693,-439,-43
10.563_1L:-36.00,-34.39,67.33_88,-260,-254_-469,264,452_693,-439,-43
10.581_1L:-34.99,-31.31,71.24_30,-260,-176_-469,-52,456_693,-439,-43
10.609_1L:-38.26,-28.51,75.61_-9,-260,47_-469,-498,244_466,-593,197
10.624_1L:-41.53,-28.30,75.44_16,-10,160_142,-498,-43_466,-593,197
10.643_1L:-35.77,-30.75,71.42_13,215,-201_-243,-498,255_466,-593,197
10.671_1L:-30.81,-31.69,69.52_11,97,-220_-128,202,171_466,-593,197
10.689_1L:-26.86,-29.97,66.86_-4,19,37_-29,333,167_466,-593,197
10.706_1L:-29.22,-30.46,66.36_-5,32,142_-141,-220,195_466,-593,197
10.721_1L:-32.12,-29.19,65.70_-14,70,127_-188,-196,215_298,-607,297
10.753_1L:-34.48,-29.00,64.71_-11,96,141_-225,-175,233_298,-607,297
10.771_1L:-37.55,-29.80,63.64_7,89,200_-314,-172,252_298,-607,297
10.787_1L:-40.67,-31.32,62.19_3,121,225_-399,-249,251_298,-607,297
10.816_1L:-42.37,-33.33,60.22_3,150,160_-288,-336,209_298,-607,297
10.833_1L:-43.06,-34.40,58.04_48,129,121_-135,-213,148_298,-607,297
10.851_1L:-44.90,-30.81,56.48_77,96,117_-67,-136,96_505,-636,7
10.880_1L:-46.62,-29.96,55.41_27,69,103_10,-87,35_505,-636,7
10.897_1L:-47.98,-30.67,55.22_-4,39,81_249,-55,30_505,-636,7
10.914_1L:-49.44,-34.75,55.38_11,16,67_554,5,12_505,-636,7
10.931_1L:-50.53,-34.04,55.06_49,-14,72_554,-20,46_505,-636,7
10.959_1L:-51.54,-33.09,54.99_50,-33,63_524,-58,-6_505,-636,7
10.977_1L:-53.09,-32.37,56.66_-20,-68,40_398,-144,-42_595,-586,-86
10.995_1L:-55.74,-31.17,59.94_-74,-130,44_554,-144,-53_595,-586,-86
11.023_1L:-56.49,-30.01,61.13_-8,-84,4_554,-232,104_595,-586,-86
11.040_1L:-53.93,-28.58,59.43_112,-22,-99_554,-230,254_595,-586,-86
11.059_1L:-49.94,-27.12,56.55_153,19,-141_430,-227,196_595,-586,-86
11.090_1L:-46.31,-27.47,55.26_39,53,-168_136,-293,158_595,-586,-86
11.104_1L:-44.73,-28.51,56.71_-76,-4,-129_95,-317,101_484,-658,-23
11.123_1L:-46.99,-29.21,60.42_-127,-58,-11_202,-184,-11_484,-658,-23
11.150_1L:-53.19,-31.89,65.16_-121,-64,80_238,-223,-35_484,-658,-23
11.168_1L:-57.32,-33.27,67.72_-73,-27,86_245,-264,-35_484,-658,-23
11.186_1L:-58.65,-34.02,68.15_-20,16,38_197,-259,-32_484,-658,-23
11.202_1L:-59.82,-35.06,68.60_3,36,-16_162,-234,-24_484,-658,-23
11.231_1L:-61.92,-35.80,69.81_6,22,-27_187,-152,-22_459,-665,-91
11.250_1L:-64.83,-37.56,71.59_15,-8,3_232,-155,-6_459,-665,-91
11.266_1L:-66.72,-38.90,72.44_25,-16,24_273,-191,15_459,-665,-91
11.294_1L:-67.48,-39.62,72.33_29,6,26_301,-210,33_459,-665,-91
11.312_1L:-67.68,-40.03,71.83_24,25,29_309,-226,43_459,-665,-91
11.330_1L:-68.07,-40.38,71.37_21,23,38_388,-234,41_459,-665,-91
11.347_1L:-68.22,-41.00,70.69_25,41,35_441,-266,58_491,-639,-97
11.376_1L:-66.88,-42.41,69.37_34,81,-14_477,-246,64_491,-639,-97
11.393_1L:-64.79,-43.84,68.11_31,93,-58_462,-190,63_491,-639,-97
11.408_1L:-62.95,-45.40,67.44_4,86,-62_440,-78,23_491,-639,-97
11.439_1L:-62.96,-47.03,67.60_-29,79,4_477,66,-71_491,-639,-97
11.457_1L:-64.26,-48.83,67.54_-24,86,80_554,120,-74_491,-639,-97
11.474_1L:-64.89,-49.99,67.42_-8,60,49_554,3,-34_627,-523,-73
11.502_1L:-64.28,-49.89,67.75_1,-11,-43_527,9,-33_627,-523,-73
11.519_1L:-62.86,-49.07,68.38_8,-52,-102_482,63,-51_627,-523,-73
11.535_1L:-61.64,-48.28,69.64_-11,-59,-111_336,22,11_627,-523,-73
11.552_1L:-61.04,-49.07,71.49_-36,-71,-104_69,-82,172_627,-523,-73
11.583_1L:-55.53,-45.28,71.32_29,-157,-219_-117,-127,302_627,-523,-73
11.601_1L:-50.33,-39.19,71.60_133,-246,-257_-462,41,378_629,-513,-66
11.633_1L:-46.77,-35.90,73.60_48,-180,-230_-469,26,481_629,-513,-66
11.646_1L:-47.01,-35.03,77.80_-105,-171,-127_-469,-456,300_629,-513,-66
11.662_1L:-53.39,-32.79,83.12_-109,-245,167_27,-434,-26_629,-513,-66
11.694_1L:-57.32,-32.46,83.85_-25,-49,178_20,-400,-28_629,-513,-66
11.708_1L:-53.06,-33.43,81.07_60,98,-157_29,-441,114_629,-513,-66
11.725_1L:-48.26,-33.88,78.28_75,87,-190_-68,-50,143_351,-684,28
11.742_1L:-46.91,-32.88,77.46_21,22,-11_-30,-16,204_351,-684,28
11.771_1L:-46.42,-31.73,76.37_-12,18,107_-33,-205,206_351,-684,28
11.789_1L:-48.73,-29.34,76.24_3,22,134_-95,-250,217_351,-684,28
11.806_1L:-51.31,-28.45,75.63_27,39,161_-191,-313,266_351,-684,28
11.834_1L:-54.12,-28.91,74.52_45,55,180_-285,-351,315_351,-684,28
11.851_1L:-56.68,-29.59,73.08_56,74,185_-331,-333,316_470,-643,25
11.870_1L:-58.93,-30.95,70.57_53,100,162_-272,-325,255_470,-643,25
11.898_1L:-60.20,-32.45,68.52_42,112,124_-154,-253,181_470,-643,25
11.916_1L:-60.75,-32.37,66.27_51,103,94_10,-204,117_470,-643,25
11.933_1L:-60.68,-30.67,64.82_44,64,36_178,-163,99_470,-643,25
11.950_1L:-59.97,-31.97,64.26_22,13,-17_362,-92,65_470,-643,25
11.978_1L:-61.05,-31.15,65.61_-26,-71,19_387,80,-60_599,-601,-93
11.997_1L:-64.04,-29.82,67.20_-32,-93,95_554,-54,-53_599,-601,-93
12.014_1L:-65.78,-29.51,68.56_-56,-50,49_518,-102,-57_599,-601,-93
12.042_1L:-66.74,-29.84,70.20_-85,-22,-2_501,-135,-87_599,-601,-93
12.059_1L:-67.35,-29.80,71.12_-45,-26,-3_554,-187,-68_599,-601,-93
12.076_1L:-66.61,-29.17,70.33_39,-25,-30_554,-243,14_599,-601,-93
12.092_1L:-64.46,-28.41,68.58_80,-11,-79_451,-263,45_453,-650,-196
12.124_1L:-62.21,-27.73,67.94_48,-19,-97_273,-279,43_453,-650,-196
12.142_1L:-61.16,-27.17,68.49_0,-39,-68_232,-269,33_453,-650,-196
12.158_1L:-61.54,-27.15,69.54_-23,-35,-20_253,-236,15_453,-650,-196
12.187_1L:-62.72,-28.19,70.66_-38,-1,9_208,-231,-10_453,-650,-196
12.204_1L:-64.74,-29.87,71.93_-34,20,12_198,-218,-17_453,-650,-196
12.222_1L:-66.77,-31.76,73.11_-20,29,-2_187,-191,-21_428,-687,-99
12.251_1L:-68.96,-33.77,74.42_-2,23,-11_204,-187,-13_428,-687,-99
12.268_1L:-70.56,-35.26,75.20_15,7,-4_222,-162,-16_428,-687,-99
12.286_1L:-72.31,-36.92,75.83_20,-1,19_244,-181,-11_428,-687,-99
12.302_1L:-73.71,-38.23,76.08_22,6,27_267,-248,5_428,-687,-99
12.331_1L:-73.60,-38.78,75.47_27,30,9_299,-291,24_428,-687,-99
12.348_1L:-72.99,-39.44,74.51_34,41,-2_323,-286,19_465,-655,-117
12.383_1L:-72.64,-39.83,73.57_46,30,20_446,-195,31_465,-655,-117
12.395_1L:-72.61,-40.17,72.36_59,32,47_505,-168,51_465,-655,-117
12.412_1L:-72.53,-40.91,71.06_58,56,51_502,-157,54_465,-655,-117
12.428_1L:-72.25,-42.18,70.13_34,75,28_508,-140,27_465,-655,-117
12.459_1L:-72.06,-43.65,69.90_4,80,9_554,-51,-50_465,-655,-117
12.475_1L:-71.81,-45.66,69.41_4,106,16_554,-39,-83_583,-570,-105
12.492_1L:-70.31,-47.75,68.42_7,107,-38_554,-68,-66_583,-570,-105
12.523_1L:-67.67,-48.79,67.98_5,53,-119_554,42,-79_583,-570,-105
12.539_1L:-65.95,-48.74,68.43_-4,-11,-110_472,263,-128_583,-570,-105
12.556_1L:-65.80,-46.86,69.91_1,-112,-62_281,212,-60_583,-570,-105
12.572_1L:-64.86,-45.20,71.47_10,-159,-107_131,179,100_583,-570,-105
12.603_1L:-55.57,-45.09,69.11_53,-227,-256_-404,-45,431_632,-503,-43
12.620_1L:-51.68,-39.98,71.00_94,-260,-257_-469,74,496_632,-503,-43
12.654_1L:-49.30,-35.51,73.57_64,-260,-208_-469,74,393_632,-503,-43
12.668_1L:-54.28,-31.41,76.20_42,-260,182_-469,-498,221_632,-503,-43
12.685_1L:-60.37,-30.25,76.98_1,-85,283_30,-498,65_632,-503,-43
12.702_1L:-57.95,-34.65,74.74_-43,248,-76_-267,-498,226_632,-503,-43
12.730_1L:-52.64,-37.06,73.45_-28,122,-249_-36,148,95_236,-712,133
12.749_1L:-48.94,-36.87,72.48_30,-2,-55_139,509,64_236,-712,133
12.766_1L:-50.80,-36.39,73.02_33,-12,105_6,157,83_236,-712,133
12.782_1L:-49.92,-37.37,71.78_17,44,89_-34,-74,117_236,-712,133
12.811_1L:-49.55,-38.07,71.50_3,68,22_-169,-155,212_236,-712,133
12.829_1L:-49.40,-35.86,70.59_12,74,76_-264,-107,225_236,-712,133
12.846_1L:-51.53,-36.45,69.97_12,84,170_-341,-203,246_359,-649,178
12.876_1L:-54.00,-38.46,68.64_8,116,173_-393,-302,250_359,-649,178
12.893_1L:-54.68,-40.94,66.88_6,163,118_-359,-308,243_359,-649,178
12.910_1L:-54.18,-43.14,63.82_53,172,101_-207,-203,218_359,-649,178
12.939_1L:-53.41,-44.04,60.68_73,148,101_-158,-141,173_359,-649,178
12.957_1L:-53.40,-39.50,59.53_17,38,99_-18,-119,45_359,-649,178
12.974_1L:-56.27,-39.37,61.35_-31,-31,114_226,3,-8_603,-577,-5
13.002_1L:-58.60,-43.07,62.67_-23,-31,64_542,-86,-23_603,-577,-5
13.019_1L:-59.01,-42.50,62.60_24,-28,23_554,-28,-11_603,-577,-5
13.035_1L:-59.21,-41.62,62.39_36,-38,15_554,-52,45_603,-577,-5
13.052_1L:-59.11,-40.36,62.37_41,-61,-7_554,-121,77_603,-577,-5
13.082_1L:-58.61,-38.48,62.58_49,-91,-34_554,-203,84_603,-577,-5
13.100_1L:-58.66,-36.31,62.95_53,-112,-12_497,-225,70_493,-666,-36
13.118_1L:-59.11,-35.08,63.80_21,-61,8_373,-310,54_493,-666,-36
13.147_1L:-59.00,-35.66,64.65_-29,13,-24_257,-394,53_493,-666,-36
13.164_1L:-58.51,-36.76,65.64_-46,32,-48_252,-370,37_493,-666,-36
13.182_1L:-58.35,-37.86,66.18_-34,43,-19_278,-246,21_493,-666,-36
13.198_1L:-58.47,-38.91,66.25_-14,49,12_258,-173,25_493,-666,-36
13.226_1L:-59.70,-40.83,66.88_-6,42,20_223,-148,32_472,-667,-26
13.245_1L:-60.90,-43.33,68.00_-9,37,-6_179,-189,53_472,-667,-26
13.261_1L:-61.41,-44.23,69.16_-18,41,-42_199,-157,56_472,-667,-26
13.290_1L:-61.60,-45.56,70.08_-14,29,-37_215,-114,48_472,-667,-26
13.306_1L:-62.28,-47.06,70.85_-3,-3,4_218,-115,45_472,-667,-26
13.323_1L:-63.75,-48.00,71.64_11,-26,42_224,-140,47_472,-667,-26
13.353_1L:-65.19,-48.36,72.30_16,-24,45_207,-199,53_515,-626,-51
13.372_1L:-66.28,-47.99,73.23_14,-6,14_214,-230,62_515,-626,-51
13.389_1L:-66.53,-47.51,73.59_23,-6,0_230,-213,63_515,-626,-51
13.405_1L:-67.09,-46.79,73.74_37,-26,27_252,-187,53_515,-626,-51
13.435_1L:-67.65,-46.67,73.67_40,-15,38_327,-355,75_515,-626,-51
13.452_1L:-66.39,-47.35,72.92_30,45,-24_413,-365,109_515,-626,-51
13.469_1L:-64.13,-48.70,71.96_21,84,-70_490,-260,120_512,-636,-49
13.498_1L:-62.22,-50.28,70.96_14,84,-39_554,-191,146_512,-636,-49
13.514_1L:-60.82,-52.18,70.21_-7,107,-28_554,-180,127_512,-636,-49
13.530_1L:-59.82,-54.79,69.83_-38,127,-20_554,-32,-6_512,-636,-49
13.561_1L:-60.28,-57.16,69.63_-43,118,50_554,115,-110_512,-636,-49
13.579_1L:-62.58,-58.52,70.16_-31,56,112_554,146,-175_512,-636,-49
13.597_1L:-64.51,-58.71,71.16_-15,-2,73_554,149,-201_693,-440,-80
13.625_1L:-61.95,-59.00,71.93_-15,0,-152_345,267,-190_693,-440,-80
13.641_1L:-58.62,-58.92,72.65_-7,-19,-214_83,265,-1_693,-440,-80
13.658_1L:-51.32,-60.03,70.06_56,-170,-197_-203,136,361_693,-440,-80
13.692_1L:-49.96,-55.96,73.99_54,-252,-250_-469,45,570_693,-440,-80
13.706_1L:-48.91,-52.24,78.64_20,-260,-258_-469,-24,570_693,-440,-80
13.723_1L:-48.51,-48.66,83.73_-4,-260,-223_-469,-294,486_470,-590,165
13.753_1L:-52.62,-43.68,87.82_64,-259,75_-343,-498,181_470,-590,165
13.770_1L:-52.94,-44.57,86.11_45,87,99_-60,-498,71_470,-590,165
13.787_1L:-46.46,-48.58,82.65_-18,259,-200_-329,-498,271_470,-590,165
13.817_1L:-41.74,-50.72,81.12_-21,123,-166_-36,393,83_470,-590,165
13.831_1L:-41.85,-51.18,81.15_-2,26,24_149,464,105_470,-590,165
13.848_1L:-42.88,-50.68,81.37_32,-13,64_65,80,138_378,-614,263
13.877_1L:-40.95,-50.74,78.82_34,31,74_-143,-163,218_378,-614,263
13.894_1L:-41.20,-47.68,77.52_16,64,96_-181,-156,255_378,-614,263
13.912_1L:-42.69,-47.00,76.53_12,63,154_-180,-155,254_378,-614,263
13.929_1L:-45.15,-46.06,75.36_23,60,207_-248,-264,265_378,-614,263
13.957_1L:-46.59,-47.53,73.93_8,110,164_-325,-417,280_378,-614,263
13.975_1L:-46.28,-49.34,71.31_25,145,115_-267,-323,233_502,-620,42
13.991_1L:-45.83,-50.55,67.39_60,133,137_-194,-220,191_502,-620,42
14.021_1L:-46.31,-49.62,64.58_64,93,146_-35,-165,156_502,-620,42
14.038_1L:-47.52,-46.58,63.40_19,67,125_81,-121,61_502,-620,42
14.054_1L:-49.15,-46.81,63.37_8,33,92_474,-6,25_502,-620,42
14.071_1L:-49.92,-46.69,63.11_29,9,67_554,84,18_502,-620,42
14.101_1L:-50.16,-46.63,62.59_34,17,47_554,115,-31_631,-539,-81
14.121_1L:-52.60,-45.88,63.26_13,-45,97_521,94,-77_631,-539,-81
14.137_1L:-56.84,-44.26,65.15_0,-111,149_554,-69,26_631,-539,-81
14.165_1L:-58.35,-42.65,66.46_9,-104,32_554,-314,120_631,-539,-81
14.183_1L:-56.69,-41.40,67.75_-2,-86,-132_519,-327,67_631,-539,-81
14.201_1L:-54.94,-40.47,69.25_-18,-82,-151_419,-189,-2_631,-539,-81
14.232_1L:-55.47,-39.47,71.56_-43,-99,-53_321,-143,-19_483,-653,-72
14.247_1L:-59.11,-39.33,74.96_-63,-96,63_314,-259,-7_483,-653,-72
14.264_1L:-62.16,-39.10,77.17_-61,-53,88_279,-336,-6_483,-653,-72
14.280_1L:-63.46,-39.61,78.39_-49,0,30_222,-338,-1_483,-653,-72
14.309_1L:-63.48,-40.24,79.06_-30,16,-21_187,-271,-17_483,-653,-72
14.325_1L:-64.73,-40.59,80.36_-17,12,-22_195,-221,-26_483,-653,-72
14.342_1L:-66.99,-41.19,82.06_-5,7,-10_201,-215,-22_397,-687,-173
14.374_1L:-68.90,-41.86,83.61_6,12,-11_211,-225,-16_397,-687,-173
14.391_1L:-69.86,-42.39,84.42_18,17,-18_224,-230,-10_397,-687,-173
14.408_1L:-70.51,-42.59,84.71_31,6,-4_238,-235,-9_397,-687,-173
14.436_1L:-71.36,-42.58,84.67_39,-3,26_262,-245,-23_397,-687,-173
14.454_1L:-71.35,-42.88,84.18_36,19,13_277,-330,-25_397,-687,-173
14.471_1L:-69.56,-43.58,82.81_50,51,-39_355,-383,20_441,-669,-154
14.500_1L:-66.67,-44.54,80.65_70,74,-60_418,-252,47_441,-669,-154
14.517_1L:-64.68,-45.62,78.86_54,80,-27_413,-189,37_441,-669,-154
14.533_1L:-63.55,-47.21,77.49_26,103,4_496,-168,55_441,-669,-154
14.550_1L:-61.79,-49.46,75.81_15,133,-14_538,-141,46_441,-669,-154
14.580_1L:-59.43,-51.58,74.21_9,131,-48_554,-33,19_441,-669,-154
14.597_1L:-57.61,-53.14,72.85_11,99,-27_554,118,-61_652,-509,-58
14.614_1L:-57.16,-53.83,71.44_21,46,30_554,166,-72_652,-509,-58
14.644_1L:-55.74,-54.33,70.82_8,31,-51_554,73,6_652,-509,-58
14.660_1L:-52.73,-55.61,71.74_-52,34,-197_377,74,11_652,-509,-58
14.677_1L:-51.40,-55.64,74.17_-53,-48,-183_115,111,138_652,-509,-58
14.707_1L:-45.69,-52.89,73.89_42,-237,-197_-145,35,337_652,-509,-58
14.724_1L:-43.24,-48.27,76.85_98,-260,-249_-469,30,526_578,-536,80
14.741_1L:-41.34,-44.29,82.08_31,-260,-257_-469,-238,570_578,-536,80
14.772_1L:-42.32,-42.50,88.65_-96,-260,-187_-469,-449,389_578,-536,80
14.788_1L:-54.22,-39.91,93.76_-45,-244,441_-150,-478,-389_578,-536,80
14.805_1L:-54.67,-41.80,87.83_140,218,235_419,-498,-160_578,-536,80
14.835_1L:-47.10,-43.46,83.82_73,159,-254_-469,-498,220_578,-536,80
14.850_1L:-43.42,-44.65,82.32_6,86,-143_20,525,192_299,-676,217
14.867_1L:-45.97,-45.24,83.36_-21,10,109_112,45,177_299,-676,217
14.898_1L:-44.30,-45.36,81.58_2,-13,102_53,-109,164_299,-676,217
14.915_1L:-44.21,-43.68,81.32_20,3,49_-41,-105,173_299,-676,217
14.932_1L:-44.35,-40.94,80.87_27,3,74_-134,-121,178_299,-676,217
14.950_1L:-46.02,-35.29,80.39_24,4,157_-194,-158,179_299,-676,217
14.978_1L:-48.81,-32.42,79.93_16,53,196_-255,-272,199_345,-693,21
14.997_1L:-50.70,-34.25,78.04_14,116,144_-294,-365,222_345,-693,21
15.014_1L:-50.85,-35.57,75.58_53,129,92_-287,-309,208_345,-693,21
